ACCELEROMETER X (m/s²),ACCELEROMETER Y (m/s²),ACCELEROMETER Z (m/s²),GYROSCOPE X (rad/s),GYROSCOPE Y (rad/s),GYROSCOPE Z (rad/s),Time since start in ms ,YYYY-MO-DD HH-MI-SS_SSS
0.022,-0.182,-9.862,0,0,0,1875,2021-01-15 19:00:36:157
0.022,-0.182,-9.862,0,0,0,1885,2021-01-15 19:00:36:167
0.022,-0.182,-9.862,0,0,0,1895,2021-01-15 19:00:36:177
0.022,-0.182,-9.862,0,0,0,1906,2021-01-15 19:00:36:188
0.022,-0.182,-9.862,0,0,0,1915,2021-01-15 19:00:36:197
0.022,-0.182,-9.862,0,0,0,1926,2021-01-15 19:00:36:208
0.024,-0.17,-9.845,0,0,0,1935,2021-01-15 19:00:36:217
0.024,-0.17,-9.845,0,0,0,1945,2021-01-15 19:00:36:227
0.024,-0.17,-9.845,0,0,0,1956,2021-01-15 19:00:36:238
0.024,-0.17,-9.845,0,0,0,1965,2021-01-15 19:00:36:247
0.024,-0.17,-9.845,0,0,0,1975,2021-01-15 19:00:36:257
0.024,-0.17,-9.845,0,0,0,1986,2021-01-15 19:00:36:268
0.029,-0.196,-9.838,0,0,0,1995,2021-01-15 19:00:36:277
0.029,-0.196,-9.838,0,0,0,2006,2021-01-15 19:00:36:288
0.029,-0.196,-9.838,0,0,0,2015,2021-01-15 19:00:36:297
0.029,-0.196,-9.838,0,0,0,2025,2021-01-15 19:00:36:307
0.029,-0.196,-9.838,0,0,0,2035,2021-01-15 19:00:36:317
0.029,-0.196,-9.838,0,0,0,2050,2021-01-15 19:00:36:332
0.034,-0.187,-9.86,0,0,0,2055,2021-01-15 19:00:36:337
0.034,-0.187,-9.86,0,0,0,2065,2021-01-15 19:00:36:347
0.034,-0.187,-9.86,0,0,0,2099,2021-01-15 19:00:36:381
0.034,-0.187,-9.86,0,0,0,2100,2021-01-15 19:00:36:382
0.034,-0.187,-9.86,0,0,0,2101,2021-01-15 19:00:36:383
0.034,-0.187,-9.86,0,0,0,2105,2021-01-15 19:00:36:387
0.024,-0.182,-9.852,0,0,0,2118,2021-01-15 19:00:36:400
0.024,-0.182,-9.852,0,0,0,2125,2021-01-15 19:00:36:407
0.024,-0.182,-9.852,0,0,0,2136,2021-01-15 19:00:36:418
0.024,-0.182,-9.852,0,0,0,2145,2021-01-15 19:00:36:427
0.024,-0.182,-9.852,0,-0.001,0,2155,2021-01-15 19:00:36:437
0.024,-0.182,-9.852,0,-0.001,0,2165,2021-01-15 19:00:36:447
0.024,-0.172,-9.852,0,-0.001,0,2175,2021-01-15 19:00:36:457
0.024,-0.172,-9.852,0,-0.001,0,2185,2021-01-15 19:00:36:467
0.024,-0.172,-9.852,0,-0.001,0,2195,2021-01-15 19:00:36:477
0.024,-0.172,-9.852,0,-0.001,0,2205,2021-01-15 19:00:36:487
0.024,-0.172,-9.852,0,-0.001,0,2215,2021-01-15 19:00:36:497
0.024,-0.172,-9.852,0,-0.001,0,2225,2021-01-15 19:00:36:507
0.017,-0.184,-9.862,0,-0.001,0,2236,2021-01-15 19:00:36:518
0.017,-0.184,-9.862,0,-0.001,0,2245,2021-01-15 19:00:36:527
0.017,-0.184,-9.862,0,-0.001,0,2255,2021-01-15 19:00:36:537
0.017,-0.184,-9.862,0,-0.001,0,2265,2021-01-15 19:00:36:547
0.017,-0.184,-9.862,0,-0.001,0,2276,2021-01-15 19:00:36:558
0.017,-0.184,-9.862,0,0,0,2285,2021-01-15 19:00:36:567
0.022,-0.189,-9.845,0,0,0,2299,2021-01-15 19:00:36:581
0.022,-0.189,-9.845,0,0,0,2306,2021-01-15 19:00:36:588
0.022,-0.189,-9.845,0,0,0,2316,2021-01-15 19:00:36:598
0.022,-0.189,-9.845,0,0,0,2325,2021-01-15 19:00:36:607
0.022,-0.189,-9.845,0,0,0,2335,2021-01-15 19:00:36:617
0.022,-0.189,-9.845,0,0,0,2345,2021-01-15 19:00:36:627
0.038,-0.16,-9.867,0,0,0,2355,2021-01-15 19:00:36:637
0.038,-0.16,-9.867,0,0,0,2367,2021-01-15 19:00:36:649
0.038,-0.16,-9.867,0,0,0,2377,2021-01-15 19:00:36:659
0.038,-0.16,-9.867,0,0,0,2388,2021-01-15 19:00:36:670
0.038,-0.16,-9.867,0,0,0,2397,2021-01-15 19:00:36:679
0.038,-0.16,-9.867,0,0,0,2405,2021-01-15 19:00:36:687
0.014,-0.184,-9.862,0,0,0,2418,2021-01-15 19:00:36:700
0.014,-0.184,-9.862,0,0,0,2425,2021-01-15 19:00:36:707
0.014,-0.184,-9.862,0,0,0,2435,2021-01-15 19:00:36:717
0.014,-0.184,-9.862,0,0,0,2445,2021-01-15 19:00:36:727
0.014,-0.184,-9.862,0,0,0,2456,2021-01-15 19:00:36:738
0.014,-0.184,-9.862,0,0,0,2465,2021-01-15 19:00:36:747
0.038,-0.172,-9.848,0,0,0,2478,2021-01-15 19:00:36:760
0.038,-0.172,-9.848,0,0,0,2485,2021-01-15 19:00:36:767
0.038,-0.172,-9.848,0,0,0,2495,2021-01-15 19:00:36:777
0.038,-0.172,-9.848,0,0,0,2505,2021-01-15 19:00:36:787
0.038,-0.172,-9.848,0,-0.001,0,2516,2021-01-15 19:00:36:798
0.038,-0.172,-9.848,0,-0.001,0,2526,2021-01-15 19:00:36:808
0.024,-0.192,-9.867,0,-0.001,0,2536,2021-01-15 19:00:36:818
0.024,-0.192,-9.867,0,-0.001,0,2546,2021-01-15 19:00:36:828
0.024,-0.192,-9.867,0,-0.001,0,2555,2021-01-15 19:00:36:837
0.024,-0.192,-9.867,0,-0.001,0,2565,2021-01-15 19:00:36:847
0.024,-0.192,-9.867,0,-0.001,0,2575,2021-01-15 19:00:36:857
0.024,-0.192,-9.867,0,-0.001,0,2585,2021-01-15 19:00:36:867
0.007,-0.187,-9.884,0,-0.001,0,2596,2021-01-15 19:00:36:878
0.007,-0.187,-9.884,0,-0.001,0,2606,2021-01-15 19:00:36:888
0.007,-0.187,-9.884,0,-0.001,0,2615,2021-01-15 19:00:36:897
0.007,-0.187,-9.884,0,-0.001,0,2625,2021-01-15 19:00:36:907
0.007,-0.187,-9.884,0,-0.001,0,2636,2021-01-15 19:00:36:918
0.007,-0.187,-9.884,0,-0.001,0,2647,2021-01-15 19:00:36:929
0.007,-0.187,-9.884,0,-0.001,0,2655,2021-01-15 19:00:36:937
0.038,-0.192,-9.862,0,-0.001,0,2666,2021-01-15 19:00:36:948
0.038,-0.192,-9.862,0,-0.001,0,2675,2021-01-15 19:00:36:957
0.038,-0.192,-9.862,0,-0.001,0,2686,2021-01-15 19:00:36:968
0.038,-0.192,-9.862,0,-0.001,0,2699,2021-01-15 19:00:36:981
0.038,-0.192,-9.862,0,-0.001,0,2705,2021-01-15 19:00:36:987
0.026,-0.192,-9.848,0,-0.001,0,2718,2021-01-15 19:00:37:000
0.026,-0.192,-9.848,0,-0.001,0,2726,2021-01-15 19:00:37:008
0.026,-0.192,-9.848,0,-0.001,0,2735,2021-01-15 19:00:37:017
0.026,-0.192,-9.848,0,-0.001,0,2749,2021-01-15 19:00:37:031
0.026,-0.192,-9.848,0,-0.001,0,2755,2021-01-15 19:00:37:037
0.026,-0.192,-9.848,0,-0.001,0,2765,2021-01-15 19:00:37:047
0.019,-0.199,-9.862,0,-0.001,0,2775,2021-01-15 19:00:37:057
0.019,-0.199,-9.862,0,-0.001,0,2785,2021-01-15 19:00:37:067
0.019,-0.199,-9.862,0,-0.001,0,2795,2021-01-15 19:00:37:077
0.019,-0.199,-9.862,0,-0.001,0,2805,2021-01-15 19:00:37:087
0.019,-0.199,-9.862,0,-0.001,0,2816,2021-01-15 19:00:37:098
0.019,-0.199,-9.862,0,-0.001,0,2825,2021-01-15 19:00:37:107
0.031,-0.175,-9.872,0,-0.001,0,2835,2021-01-15 19:00:37:117
0.031,-0.175,-9.872,0,-0.001,0,2845,2021-01-15 19:00:37:127
0.031,-0.175,-9.872,0,-0.001,0,2855,2021-01-15 19:00:37:137
0.031,-0.175,-9.872,0,-0.001,0,2870,2021-01-15 19:00:37:152
0.031,-0.175,-9.872,0,-0.002,0,2877,2021-01-15 19:00:37:159
0.031,-0.175,-9.872,0,-0.002,0,2885,2021-01-15 19:00:37:167
0.031,-0.175,-9.872,0,-0.002,0,2895,2021-01-15 19:00:37:177
0.029,-0.177,-9.869,0,-0.002,0,2905,2021-01-15 19:00:37:187
0.029,-0.177,-9.869,0,-0.002,0,2915,2021-01-15 19:00:37:197
0.029,-0.177,-9.869,0,-0.002,0,2929,2021-01-15 19:00:37:211
0.029,-0.177,-9.869,0,-0.002,0,2935,2021-01-15 19:00:37:217
0.029,-0.177,-9.869,0,-0.002,0,2946,2021-01-15 19:00:37:228
0.029,-0.177,-9.869,0,-0.002,0,2955,2021-01-15 19:00:37:237
0.029,-0.177,-9.869,0,-0.002,0,2965,2021-01-15 19:00:37:247
0.014,-0.199,-9.869,0,-0.002,0,2975,2021-01-15 19:00:37:257
0.014,-0.199,-9.869,0,-0.002,0,2985,2021-01-15 19:00:37:267
0.014,-0.199,-9.869,0,-0.001,0,2995,2021-01-15 19:00:37:277
0.014,-0.199,-9.869,0,-0.001,0,3005,2021-01-15 19:00:37:287
0.014,-0.199,-9.869,0,-0.001,0,3015,2021-01-15 19:00:37:297
0.014,-0.199,-9.869,0,-0.001,0,3025,2021-01-15 19:00:37:307
0.014,-0.199,-9.869,0,-0.001,0,3035,2021-01-15 19:00:37:317
0.014,-0.199,-9.869,0,-0.001,0,3045,2021-01-15 19:00:37:327
0.014,-0.199,-9.869,0,-0.001,0,3055,2021-01-15 19:00:37:337
0.029,-0.201,-9.862,0,-0.001,0,3065,2021-01-15 19:00:37:347
0.029,-0.201,-9.862,0,-0.001,0,3075,2021-01-15 19:00:37:357
0.029,-0.201,-9.862,0,-0.001,0,3085,2021-01-15 19:00:37:367
0.029,-0.201,-9.862,0,-0.001,0,3095,2021-01-15 19:00:37:377
0.029,-0.201,-9.862,0,-0.001,0,3105,2021-01-15 19:00:37:387
0.029,-0.201,-9.862,0,-0.001,0,3115,2021-01-15 19:00:37:397
0.029,-0.201,-9.862,0,-0.001,0,3125,2021-01-15 19:00:37:407
0.029,-0.184,-9.86,0,-0.001,0,3135,2021-01-15 19:00:37:417
0.029,-0.184,-9.86,0,-0.001,0,3146,2021-01-15 19:00:37:428
0.029,-0.184,-9.86,0,-0.001,0,3155,2021-01-15 19:00:37:437
0.029,-0.184,-9.86,0,-0.001,0,3165,2021-01-15 19:00:37:447
0.029,-0.184,-9.86,0,-0.001,0,3175,2021-01-15 19:00:37:457
0.029,-0.184,-9.86,0,-0.001,0,3186,2021-01-15 19:00:37:468
0.031,-0.184,-9.86,0,-0.001,0,3195,2021-01-15 19:00:37:477
0.031,-0.184,-9.86,0,-0.001,0,3205,2021-01-15 19:00:37:487
0.031,-0.184,-9.86,0,-0.001,0,3215,2021-01-15 19:00:37:497
0.031,-0.184,-9.86,0,-0.001,0,3225,2021-01-15 19:00:37:507
0.031,-0.184,-9.86,0,0,0,3235,2021-01-15 19:00:37:517
0.031,-0.184,-9.86,0,0,0,3246,2021-01-15 19:00:37:528
0.005,-0.184,-9.867,0,0,0,3255,2021-01-15 19:00:37:537
0.005,-0.184,-9.867,0,0,0,3270,2021-01-15 19:00:37:552
0.005,-0.184,-9.867,0,0,0,3275,2021-01-15 19:00:37:557
0.005,-0.184,-9.867,0,0,0,3285,2021-01-15 19:00:37:567
0.005,-0.184,-9.867,0,0,0,3297,2021-01-15 19:00:37:579
0.005,-0.184,-9.867,0,0,0,3305,2021-01-15 19:00:37:587
0.026,-0.18,-9.852,0,0,0,3315,2021-01-15 19:00:37:597
0.026,-0.18,-9.852,0,0,0,3325,2021-01-15 19:00:37:607
0.026,-0.18,-9.852,0,0,0,3335,2021-01-15 19:00:37:617
0.026,-0.18,-9.852,0,0,0,3345,2021-01-15 19:00:37:627
0.026,-0.18,-9.852,0,-0.001,0,3355,2021-01-15 19:00:37:637
0.026,-0.18,-9.852,0,-0.001,0,3365,2021-01-15 19:00:37:647
0.014,-0.192,-9.85,0,-0.001,0,3375,2021-01-15 19:00:37:657
0.014,-0.192,-9.85,0,-0.001,0,3385,2021-01-15 19:00:37:667
0.014,-0.192,-9.85,0,-0.001,0,3395,2021-01-15 19:00:37:677
0.014,-0.192,-9.85,0,-0.001,0,3405,2021-01-15 19:00:37:687
0.014,-0.192,-9.85,0,-0.001,0,3415,2021-01-15 19:00:37:697
0.014,-0.192,-9.85,0,-0.001,0,3425,2021-01-15 19:00:37:707
0.026,-0.196,-9.862,0,-0.001,0,3435,2021-01-15 19:00:37:717
0.026,-0.196,-9.862,0,-0.001,0,3446,2021-01-15 19:00:37:728
0.026,-0.196,-9.862,0,-0.001,0,3455,2021-01-15 19:00:37:737
0.026,-0.196,-9.862,0,-0.001,0,3465,2021-01-15 19:00:37:747
0.026,-0.196,-9.862,0,-0.001,0,3477,2021-01-15 19:00:37:759
0.026,-0.196,-9.862,0,-0.001,0,3485,2021-01-15 19:00:37:767
0.024,-0.199,-9.874,0,-0.001,0,3496,2021-01-15 19:00:37:778
0.024,-0.199,-9.874,0,-0.001,0,3505,2021-01-15 19:00:37:787
0.024,-0.199,-9.874,0,-0.001,0,3518,2021-01-15 19:00:37:800
0.024,-0.199,-9.874,0,-0.001,0,3525,2021-01-15 19:00:37:807
0.024,-0.199,-9.874,0,-0.001,0,3536,2021-01-15 19:00:37:818
0.024,-0.199,-9.874,0,-0.001,0,3545,2021-01-15 19:00:37:827
0.019,-0.196,-9.843,0,-0.001,0,3555,2021-01-15 19:00:37:837
0.019,-0.196,-9.843,0,-0.001,0,3567,2021-01-15 19:00:37:849
0.019,-0.196,-9.843,0,-0.001,0,3576,2021-01-15 19:00:37:858
0.019,-0.196,-9.843,0,-0.001,0,3585,2021-01-15 19:00:37:867
0.019,-0.196,-9.843,0,0,0,3595,2021-01-15 19:00:37:877
0.019,-0.196,-9.843,0,0,0,3605,2021-01-15 19:00:37:887
0.036,-0.184,-9.867,0,0,0,3616,2021-01-15 19:00:37:898
0.036,-0.184,-9.867,0,0,0,3625,2021-01-15 19:00:37:907
0.036,-0.184,-9.867,0,0,0,3635,2021-01-15 19:00:37:917
0.036,-0.184,-9.867,0,0,0,3645,2021-01-15 19:00:37:927
0.036,-0.184,-9.867,0,0,0,3655,2021-01-15 19:00:37:937
0.036,-0.184,-9.867,0,0,0,3665,2021-01-15 19:00:37:947
0.007,-0.182,-9.869,0,0,0,3675,2021-01-15 19:00:37:957
0.007,-0.182,-9.869,0,0,0,3685,2021-01-15 19:00:37:967
0.007,-0.182,-9.869,0,0,0,3695,2021-01-15 19:00:37:977
0.007,-0.182,-9.869,0,0,0,3705,2021-01-15 19:00:37:987
0.007,-0.182,-9.869,0,0,0,3715,2021-01-15 19:00:37:997
0.007,-0.182,-9.869,0,0,0,3727,2021-01-15 19:00:38:009
0.036,-0.192,-9.86,0,0,0,3735,2021-01-15 19:00:38:017
0.036,-0.192,-9.86,0,0,0,3745,2021-01-15 19:00:38:027
0.036,-0.192,-9.86,0,0,0,3755,2021-01-15 19:00:38:037
0.036,-0.192,-9.86,0,0,0,3766,2021-01-15 19:00:38:048
0.036,-0.192,-9.86,0,0,0,3775,2021-01-15 19:00:38:057
0.036,-0.192,-9.86,0,0,0,3785,2021-01-15 19:00:38:067
0.017,-0.177,-9.872,0,0,0,3795,2021-01-15 19:00:38:077
0.017,-0.177,-9.872,0,0,0,3805,2021-01-15 19:00:38:087
0.017,-0.177,-9.872,0,0,0,3816,2021-01-15 19:00:38:098
0.017,-0.177,-9.872,0,0,0,3825,2021-01-15 19:00:38:107
0.017,-0.177,-9.872,0,-0.001,0,3837,2021-01-15 19:00:38:119
0.017,-0.177,-9.872,0,-0.001,0,3846,2021-01-15 19:00:38:128
0.038,-0.175,-9.876,0,-0.001,0,3855,2021-01-15 19:00:38:137
0.038,-0.175,-9.876,0,-0.001,0,3866,2021-01-15 19:00:38:148
0.038,-0.175,-9.876,0,-0.001,0,3875,2021-01-15 19:00:38:157
0.038,-0.175,-9.876,0,-0.001,0,3885,2021-01-15 19:00:38:167
0.038,-0.175,-9.876,0,-0.001,0,3895,2021-01-15 19:00:38:177
0.038,-0.175,-9.876,0,-0.001,0,3905,2021-01-15 19:00:38:187
0.012,-0.194,-9.848,0,-0.001,0,3915,2021-01-15 19:00:38:197
0.012,-0.194,-9.848,0,-0.001,0,3925,2021-01-15 19:00:38:207
0.012,-0.194,-9.848,0,-0.001,0,3936,2021-01-15 19:00:38:218
0.012,-0.194,-9.848,0,-0.001,0,3947,2021-01-15 19:00:38:229
0.012,-0.194,-9.848,0,-0.001,0,3956,2021-01-15 19:00:38:238
0.012,-0.194,-9.848,0,-0.001,0,3966,2021-01-15 19:00:38:248
0.002,-0.189,-9.855,0,-0.001,0,3975,2021-01-15 19:00:38:257
0.002,-0.189,-9.855,0,-0.001,0,3985,2021-01-15 19:00:38:267
0.002,-0.189,-9.855,0,-0.001,0,3995,2021-01-15 19:00:38:277
0.002,-0.189,-9.855,0,-0.001,0,4005,2021-01-15 19:00:38:287
0.002,-0.189,-9.855,0,-0.001,0,4015,2021-01-15 19:00:38:297
0.002,-0.189,-9.855,0,-0.001,0,4025,2021-01-15 19:00:38:307
0.031,-0.187,-9.84,0,-0.001,0,4035,2021-01-15 19:00:38:317
0.031,-0.187,-9.84,0,-0.001,0,4045,2021-01-15 19:00:38:327
0.031,-0.187,-9.84,0,-0.001,0,4055,2021-01-15 19:00:38:337
0.031,-0.187,-9.84,0,-0.001,0,4065,2021-01-15 19:00:38:347
0.031,-0.187,-9.84,0,-0.001,0,4076,2021-01-15 19:00:38:358
0.031,-0.187,-9.84,0,-0.001,0,4085,2021-01-15 19:00:38:367
0.01,-0.187,-9.843,0,-0.001,0,4095,2021-01-15 19:00:38:377
0.01,-0.187,-9.843,0,-0.001,0,4105,2021-01-15 19:00:38:387
0.01,-0.187,-9.843,0,-0.001,0,4115,2021-01-15 19:00:38:397
0.01,-0.187,-9.843,0,-0.001,0,4125,2021-01-15 19:00:38:407
0.01,-0.187,-9.843,0,-0.001,0,4135,2021-01-15 19:00:38:417
0.01,-0.187,-9.843,0,-0.001,0,4145,2021-01-15 19:00:38:427
0.019,-0.177,-9.838,0,-0.001,0,4156,2021-01-15 19:00:38:438
0.019,-0.177,-9.838,0,-0.001,0,4170,2021-01-15 19:00:38:452
0.019,-0.177,-9.838,0,-0.001,0,4175,2021-01-15 19:00:38:457
0.019,-0.177,-9.838,0,-0.001,0,4186,2021-01-15 19:00:38:468
0.019,-0.177,-9.838,0,-0.001,0,4196,2021-01-15 19:00:38:478
0.019,-0.177,-9.838,0,-0.001,0,4206,2021-01-15 19:00:38:488
0.024,-0.189,-9.86,0,-0.001,0,4215,2021-01-15 19:00:38:497
0.024,-0.189,-9.86,0,-0.001,0,4225,2021-01-15 19:00:38:507
0.024,-0.189,-9.86,0,-0.001,0,4235,2021-01-15 19:00:38:517
0.024,-0.189,-9.86,0,-0.001,0,4245,2021-01-15 19:00:38:527
0.024,-0.189,-9.86,0,-0.001,0,4255,2021-01-15 19:00:38:537
0.024,-0.189,-9.86,0,-0.001,0,4268,2021-01-15 19:00:38:550
0.017,-0.192,-9.843,0,-0.001,0,4275,2021-01-15 19:00:38:557
0.017,-0.192,-9.843,0,-0.001,0,4285,2021-01-15 19:00:38:567
0.017,-0.192,-9.843,0,-0.001,0,4295,2021-01-15 19:00:38:577
0.017,-0.192,-9.843,0,-0.001,0,4305,2021-01-15 19:00:38:587
0.017,-0.192,-9.843,0,-0.001,0,4315,2021-01-15 19:00:38:597
0.017,-0.192,-9.843,0,0,0,4325,2021-01-15 19:00:38:607
0.005,-0.189,-9.86,0,0,0,4336,2021-01-15 19:00:38:618
0.005,-0.189,-9.86,0,0,0,4345,2021-01-15 19:00:38:627
0.005,-0.189,-9.86,0,0,0,4355,2021-01-15 19:00:38:637
0.005,-0.189,-9.86,0,0,0,4366,2021-01-15 19:00:38:648
0.005,-0.189,-9.86,0,0,0,4375,2021-01-15 19:00:38:657
0.005,-0.189,-9.86,0,0,0,4386,2021-01-15 19:00:38:668
0.034,-0.184,-9.85,0,0,0,4395,2021-01-15 19:00:38:677
0.034,-0.184,-9.85,0,0,0,4405,2021-01-15 19:00:38:687
0.034,-0.184,-9.85,0,0,0,4415,2021-01-15 19:00:38:697
0.034,-0.184,-9.85,0,0,0,4425,2021-01-15 19:00:38:707
0.034,-0.184,-9.85,0,-0.001,0,4436,2021-01-15 19:00:38:718
0.034,-0.184,-9.85,0,-0.001,0,4445,2021-01-15 19:00:38:727
0.024,-0.182,-9.852,0,-0.001,0,4456,2021-01-15 19:00:38:738
0.024,-0.182,-9.852,0,-0.001,0,4465,2021-01-15 19:00:38:747
0.024,-0.182,-9.852,0,-0.001,0,4475,2021-01-15 19:00:38:757
0.024,-0.182,-9.852,0,-0.001,0,4485,2021-01-15 19:00:38:767
0.024,-0.182,-9.852,0,-0.001,0,4495,2021-01-15 19:00:38:777
0.024,-0.182,-9.852,0,-0.001,0,4505,2021-01-15 19:00:38:787
0.024,-0.182,-9.852,0,-0.001,0,4515,2021-01-15 19:00:38:797
0.024,-0.18,-9.855,0,-0.001,0,4525,2021-01-15 19:00:38:807
0.024,-0.18,-9.855,0,-0.001,0,4535,2021-01-15 19:00:38:817
0.024,-0.18,-9.855,0,-0.001,0,4545,2021-01-15 19:00:38:827
0.024,-0.18,-9.855,0,-0.001,0,4555,2021-01-15 19:00:38:837
0.024,-0.18,-9.855,0,-0.001,0,4565,2021-01-15 19:00:38:847
0.007,-0.187,-9.86,0,-0.001,0,4575,2021-01-15 19:00:38:857
0.007,-0.187,-9.86,0,-0.001,0,4585,2021-01-15 19:00:38:867
0.007,-0.187,-9.86,0,-0.001,0,4596,2021-01-15 19:00:38:878
0.007,-0.187,-9.86,0,-0.001,0,4606,2021-01-15 19:00:38:888
0.007,-0.187,-9.86,0,-0.001,0,4615,2021-01-15 19:00:38:897
0.007,-0.187,-9.86,0,-0.001,0,4625,2021-01-15 19:00:38:907
0.019,-0.187,-9.833,0,-0.001,0,4635,2021-01-15 19:00:38:917
0.019,-0.187,-9.833,0,-0.001,0,4645,2021-01-15 19:00:38:927
0.019,-0.187,-9.833,0,-0.001,0,4656,2021-01-15 19:00:38:938
0.019,-0.187,-9.833,0,-0.001,0,4665,2021-01-15 19:00:38:947
0.019,-0.187,-9.833,0,0,0,4675,2021-01-15 19:00:38:957
0.019,-0.187,-9.833,0,0,0,4685,2021-01-15 19:00:38:967
0.005,-0.177,-9.843,0,0,0,4695,2021-01-15 19:00:38:977
0.005,-0.177,-9.843,0,0,0,4705,2021-01-15 19:00:38:987
0.005,-0.177,-9.843,0,0,0,4715,2021-01-15 19:00:38:997
0.005,-0.177,-9.843,0,0,0,4725,2021-01-15 19:00:39:007
0.005,-0.177,-9.843,0,0,0,4735,2021-01-15 19:00:39:017
0.005,-0.177,-9.843,0,0,0,4747,2021-01-15 19:00:39:029
0.029,-0.184,-9.855,0,0,0,4756,2021-01-15 19:00:39:038
0.029,-0.184,-9.855,0,0,0,4765,2021-01-15 19:00:39:047
0.029,-0.184,-9.855,0,0,0,4775,2021-01-15 19:00:39:057
0.029,-0.184,-9.855,0,0,0,4786,2021-01-15 19:00:39:068
0.029,-0.184,-9.855,0,0,0,4796,2021-01-15 19:00:39:078
0.029,-0.184,-9.855,0,0,0,4805,2021-01-15 19:00:39:087
0.005,-0.184,-9.845,0,0,0,4815,2021-01-15 19:00:39:097
0.005,-0.184,-9.845,0,0,0,4825,2021-01-15 19:00:39:107
0.005,-0.184,-9.845,0,0,0,4835,2021-01-15 19:00:39:117
0.005,-0.184,-9.845,0,0,0,4845,2021-01-15 19:00:39:127
0.005,-0.184,-9.845,0,0,0,4855,2021-01-15 19:00:39:137
0.005,-0.184,-9.845,0,0,0,4866,2021-01-15 19:00:39:148
0.036,-0.177,-9.867,0,0,0,4875,2021-01-15 19:00:39:157
0.036,-0.177,-9.867,0,0,0,4885,2021-01-15 19:00:39:167
0.036,-0.177,-9.867,0,0,0,4895,2021-01-15 19:00:39:177
0.036,-0.177,-9.867,0,0,0,4905,2021-01-15 19:00:39:187
0.036,-0.177,-9.867,0,-0.001,0,4916,2021-01-15 19:00:39:198
0.036,-0.177,-9.867,0,-0.001,0,4925,2021-01-15 19:00:39:207
0.029,-0.192,-9.852,0,-0.001,0,4936,2021-01-15 19:00:39:218
0.029,-0.192,-9.852,0,-0.001,0,4945,2021-01-15 19:00:39:227
0.029,-0.192,-9.852,0,-0.001,0,4955,2021-01-15 19:00:39:237
0.029,-0.192,-9.852,0,-0.001,0,4965,2021-01-15 19:00:39:247
0.029,-0.192,-9.852,0,-0.001,0,4976,2021-01-15 19:00:39:258
0.029,-0.192,-9.852,0,-0.001,0,4986,2021-01-15 19:00:39:268
0.019,-0.184,-9.874,0,-0.001,0,4995,2021-01-15 19:00:39:277
0.019,-0.184,-9.874,0,-0.001,0,5005,2021-01-15 19:00:39:287
0.019,-0.184,-9.874,0,-0.001,0,5015,2021-01-15 19:00:39:297
0.019,-0.184,-9.874,0,-0.001,0,5025,2021-01-15 19:00:39:307
0.019,-0.184,-9.874,0,-0.001,0,5035,2021-01-15 19:00:39:317
0.019,-0.184,-9.874,0,0,0,5045,2021-01-15 19:00:39:327
0.024,-0.194,-9.855,0,0,0,5055,2021-01-15 19:00:39:337
0.024,-0.194,-9.855,0,0,0,5065,2021-01-15 19:00:39:347
0.024,-0.194,-9.855,0,0,0,5075,2021-01-15 19:00:39:357
0.024,-0.194,-9.855,0,0,0,5087,2021-01-15 19:00:39:369
0.024,-0.194,-9.855,0,0,0,5095,2021-01-15 19:00:39:377
0.024,-0.194,-9.855,0,0,0,5105,2021-01-15 19:00:39:387
0.031,-0.18,-9.864,0,0,0,5116,2021-01-15 19:00:39:398
0.031,-0.18,-9.864,0,0,0,5125,2021-01-15 19:00:39:407
0.031,-0.18,-9.864,0,0,0,5136,2021-01-15 19:00:39:418
0.031,-0.18,-9.864,0,0,0,5145,2021-01-15 19:00:39:427
0.031,-0.18,-9.864,0,-0.002,0,5156,2021-01-15 19:00:39:438
0.031,-0.18,-9.864,0,-0.002,0,5165,2021-01-15 19:00:39:447
0.024,-0.184,-9.826,0,-0.002,0,5175,2021-01-15 19:00:39:457
0.024,-0.184,-9.826,0,-0.002,0,5185,2021-01-15 19:00:39:467
0.024,-0.184,-9.826,0,-0.002,0,5195,2021-01-15 19:00:39:477
0.024,-0.184,-9.826,0,-0.002,0,5205,2021-01-15 19:00:39:487
0.024,-0.184,-9.826,0,-0.002,0,5215,2021-01-15 19:00:39:497
0.024,-0.184,-9.826,0,-0.002,0,5225,2021-01-15 19:00:39:507
0.012,-0.194,-9.881,0,-0.002,0,5235,2021-01-15 19:00:39:517
0.012,-0.194,-9.881,0,-0.002,0,5245,2021-01-15 19:00:39:527
0.012,-0.194,-9.881,0,-0.002,0,5258,2021-01-15 19:00:39:540
0.012,-0.194,-9.881,0,-0.002,0,5265,2021-01-15 19:00:39:547
0.012,-0.194,-9.881,0,-0.001,0,5275,2021-01-15 19:00:39:557
0.012,-0.194,-9.881,0,-0.001,0,5285,2021-01-15 19:00:39:567
0.026,-0.189,-9.862,0,-0.001,0,5295,2021-01-15 19:00:39:577
0.026,-0.189,-9.862,0,-0.001,0,5308,2021-01-15 19:00:39:590
0.026,-0.189,-9.862,0,-0.001,0,5315,2021-01-15 19:00:39:597
0.026,-0.189,-9.862,0,-0.001,0,5326,2021-01-15 19:00:39:608
0.026,-0.189,-9.862,0,-0.001,0,5336,2021-01-15 19:00:39:618
0.026,-0.189,-9.862,0,-0.001,0,5345,2021-01-15 19:00:39:627
0.024,-0.184,-9.855,0,-0.001,0,5355,2021-01-15 19:00:39:637
0.024,-0.184,-9.855,0,-0.001,0,5365,2021-01-15 19:00:39:647
0.024,-0.184,-9.855,0,-0.001,0,5375,2021-01-15 19:00:39:657
0.024,-0.184,-9.855,0,-0.001,0,5385,2021-01-15 19:00:39:667
0.024,-0.184,-9.855,0,-0.001,0,5395,2021-01-15 19:00:39:677
0.024,-0.184,-9.855,0,-0.001,0,5407,2021-01-15 19:00:39:689
0.029,-0.182,-9.862,0,-0.001,0,5415,2021-01-15 19:00:39:697
0.029,-0.182,-9.862,0,-0.001,0,5425,2021-01-15 19:00:39:707
0.029,-0.182,-9.862,0,-0.001,0,5435,2021-01-15 19:00:39:717
0.029,-0.182,-9.862,0,-0.001,0,5445,2021-01-15 19:00:39:727
0.029,-0.182,-9.862,0,-0.001,0,5456,2021-01-15 19:00:39:738
0.029,-0.182,-9.862,0,-0.001,0,5465,2021-01-15 19:00:39:747
0.024,-0.184,-9.864,0,-0.001,0,5475,2021-01-15 19:00:39:757
0.024,-0.184,-9.864,0,-0.001,0,5486,2021-01-15 19:00:39:768
0.024,-0.184,-9.864,0,-0.001,0,5495,2021-01-15 19:00:39:777
0.024,-0.184,-9.864,0,-0.001,0,5507,2021-01-15 19:00:39:789
0.024,-0.184,-9.864,0,0,0,5515,2021-01-15 19:00:39:797
0.024,-0.184,-9.864,0,0,0,5525,2021-01-15 19:00:39:807
0.01,-0.189,-9.86,0,0,0,5535,2021-01-15 19:00:39:817
0.01,-0.189,-9.86,0,0,0,5545,2021-01-15 19:00:39:827
0.01,-0.189,-9.86,0,0,0,5557,2021-01-15 19:00:39:839
0.01,-0.189,-9.86,0,0,0,5566,2021-01-15 19:00:39:848
0.01,-0.189,-9.86,0,0,0,5575,2021-01-15 19:00:39:857
0.01,-0.189,-9.86,0,0,0,5585,2021-01-15 19:00:39:867
0.019,-0.182,-9.876,0,0,0,5596,2021-01-15 19:00:39:878
0.019,-0.182,-9.876,0,0,0,5605,2021-01-15 19:00:39:887
0.019,-0.182,-9.876,0,0,0,5617,2021-01-15 19:00:39:899
0.019,-0.182,-9.876,0,0,0,5625,2021-01-15 19:00:39:907
0.019,-0.182,-9.876,0,0,0,5635,2021-01-15 19:00:39:917
0.019,-0.182,-9.876,0,-0.001,0,5645,2021-01-15 19:00:39:927
0.038,-0.194,-9.855,0,-0.001,0,5655,2021-01-15 19:00:39:937
0.038,-0.194,-9.855,0,-0.001,0,5668,2021-01-15 19:00:39:950
0.038,-0.194,-9.855,0,-0.001,0,5675,2021-01-15 19:00:39:957
0.038,-0.194,-9.855,0,-0.001,0,5685,2021-01-15 19:00:39:967
0.038,-0.194,-9.855,0,-0.001,0,5696,2021-01-15 19:00:39:978
0.038,-0.194,-9.855,0,-0.001,0,5706,2021-01-15 19:00:39:988
0.014,-0.196,-9.86,0,-0.001,0,5715,2021-01-15 19:00:39:997
0.014,-0.196,-9.86,0,-0.001,0,5725,2021-01-15 19:00:40:007
0.014,-0.196,-9.86,0,-0.001,0,5736,2021-01-15 19:00:40:018
0.014,-0.196,-9.86,0,-0.001,0,5745,2021-01-15 19:00:40:027
0.014,-0.196,-9.86,0,-0.001,0,5755,2021-01-15 19:00:40:037
0.014,-0.196,-9.86,0,-0.001,0,5768,2021-01-15 19:00:40:050
0.024,-0.182,-9.874,0,-0.001,0,5775,2021-01-15 19:00:40:057
0.024,-0.182,-9.874,0,-0.001,0,5785,2021-01-15 19:00:40:067
0.024,-0.182,-9.874,0,-0.001,0,5795,2021-01-15 19:00:40:077
0.024,-0.182,-9.874,0,-0.001,0,5805,2021-01-15 19:00:40:087
0.024,-0.182,-9.874,0,-0.001,0,5816,2021-01-15 19:00:40:098
0.024,-0.182,-9.874,0,-0.001,0,5825,2021-01-15 19:00:40:107
0.024,-0.182,-9.845,0,-0.001,0,5835,2021-01-15 19:00:40:117
0.024,-0.182,-9.845,0,-0.001,0,5846,2021-01-15 19:00:40:128
0.024,-0.182,-9.845,0,-0.001,0,5856,2021-01-15 19:00:40:138
0.024,-0.182,-9.845,0,-0.001,0,5865,2021-01-15 19:00:40:147
0.024,-0.182,-9.845,0,-0.001,0,5875,2021-01-15 19:00:40:157
0.024,-0.182,-9.845,0,-0.001,0,5885,2021-01-15 19:00:40:167
0.036,-0.18,-9.872,0,-0.001,0,5895,2021-01-15 19:00:40:177
0.036,-0.18,-9.872,0,-0.001,0,5905,2021-01-15 19:00:40:187
0.036,-0.18,-9.872,0,-0.001,0,5915,2021-01-15 19:00:40:197
0.036,-0.18,-9.872,0,-0.001,0,5926,2021-01-15 19:00:40:208
0.036,-0.18,-9.872,0,-0.001,0,5935,2021-01-15 19:00:40:217
0.036,-0.18,-9.872,0,-0.001,0,5945,2021-01-15 19:00:40:227
0.019,-0.184,-9.876,0,-0.001,0,5955,2021-01-15 19:00:40:237
0.019,-0.184,-9.876,0,-0.001,0,5965,2021-01-15 19:00:40:247
0.019,-0.184,-9.876,0,-0.001,0,5975,2021-01-15 19:00:40:257
0.019,-0.184,-9.876,0,-0.001,0,5986,2021-01-15 19:00:40:268
0.019,-0.184,-9.876,0,0,0,5996,2021-01-15 19:00:40:278
0.019,-0.184,-9.876,0,0,0,6005,2021-01-15 19:00:40:287
0.029,-0.194,-9.869,0,0,0,6015,2021-01-15 19:00:40:297
0.029,-0.194,-9.869,0,0,0,6026,2021-01-15 19:00:40:308
0.029,-0.194,-9.869,0,0,0,6040,2021-01-15 19:00:40:322
0.029,-0.194,-9.869,0,0,0,6045,2021-01-15 19:00:40:327
0.029,-0.194,-9.869,0,0,0,6057,2021-01-15 19:00:40:339
0.029,-0.194,-9.869,0,0,0,6065,2021-01-15 19:00:40:347
0.029,-0.182,-9.872,0,0,0,6076,2021-01-15 19:00:40:358
0.029,-0.182,-9.872,0,0,0,6087,2021-01-15 19:00:40:369
0.029,-0.182,-9.872,0,0,0,6095,2021-01-15 19:00:40:377
0.029,-0.182,-9.872,0,0,0,6107,2021-01-15 19:00:40:389
0.029,-0.182,-9.872,0,0,0,6115,2021-01-15 19:00:40:397
0.029,-0.182,-9.872,0,0,0,6125,2021-01-15 19:00:40:407
0.031,-0.18,-9.869,0,0,0,6135,2021-01-15 19:00:40:417
0.031,-0.18,-9.869,0,0,0,6145,2021-01-15 19:00:40:427
0.031,-0.18,-9.869,0,0,0,6156,2021-01-15 19:00:40:438
0.031,-0.18,-9.869,0,0,0,6165,2021-01-15 19:00:40:447
0.031,-0.18,-9.869,0,0,0,6175,2021-01-15 19:00:40:457
0.031,-0.18,-9.869,0,0,0,6186,2021-01-15 19:00:40:468
0.024,-0.192,-9.852,0,0,0,6195,2021-01-15 19:00:40:477
0.024,-0.192,-9.852,0,0,0,6205,2021-01-15 19:00:40:487
0.024,-0.192,-9.852,0,0,0,6215,2021-01-15 19:00:40:497
0.024,-0.192,-9.852,0,0,0,6226,2021-01-15 19:00:40:508
0.024,-0.192,-9.852,0,0,0,6236,2021-01-15 19:00:40:518
0.024,-0.192,-9.852,0,0,0,6245,2021-01-15 19:00:40:527
0.019,-0.177,-9.848,0,0,0,6256,2021-01-15 19:00:40:538
0.019,-0.177,-9.848,0,0,0,6265,2021-01-15 19:00:40:547
0.019,-0.177,-9.848,0,0,0,6275,2021-01-15 19:00:40:557
0.019,-0.177,-9.848,0,0,0,6285,2021-01-15 19:00:40:567
0.019,-0.177,-9.848,0,0,0,6295,2021-01-15 19:00:40:577
0.019,-0.177,-9.848,0,0,0,6305,2021-01-15 19:00:40:587
0.017,-0.184,-9.884,0,0,0,6315,2021-01-15 19:00:40:597
0.017,-0.184,-9.884,0,0,0,6325,2021-01-15 19:00:40:607
0.017,-0.184,-9.884,0,0,0,6335,2021-01-15 19:00:40:617
0.017,-0.184,-9.884,0,0,0,6345,2021-01-15 19:00:40:627
0.017,-0.184,-9.884,0,0,0,6356,2021-01-15 19:00:40:638
0.017,-0.184,-9.884,0,0.001,-0.001,6365,2021-01-15 19:00:40:647
0.019,-0.168,-9.872,0,0.001,-0.001,6375,2021-01-15 19:00:40:657
0.019,-0.168,-9.872,0,0.001,-0.001,6385,2021-01-15 19:00:40:667
0.019,-0.168,-9.872,0,0.001,-0.001,6396,2021-01-15 19:00:40:678
0.019,-0.168,-9.872,0,0.001,-0.001,6405,2021-01-15 19:00:40:687
0.019,-0.168,-9.872,0,0.001,-0.001,6416,2021-01-15 19:00:40:698
0.019,-0.168,-9.872,0,0.001,-0.001,6426,2021-01-15 19:00:40:708
0.022,-0.182,-9.85,0,0.001,-0.001,6435,2021-01-15 19:00:40:717
0.022,-0.182,-9.85,0,0.001,-0.001,6445,2021-01-15 19:00:40:727
0.022,-0.182,-9.85,0,0.001,-0.001,6455,2021-01-15 19:00:40:737
0.022,-0.182,-9.85,0,0.001,-0.001,6465,2021-01-15 19:00:40:747
0.022,-0.182,-9.85,0,-0.001,0,6475,2021-01-15 19:00:40:757
0.022,-0.182,-9.85,0,-0.001,0,6486,2021-01-15 19:00:40:768
0.019,-0.182,-9.864,0,-0.001,0,6495,2021-01-15 19:00:40:777
0.019,-0.182,-9.864,0,-0.001,0,6505,2021-01-15 19:00:40:787
0.019,-0.182,-9.864,0,-0.001,0,6515,2021-01-15 19:00:40:797
0.019,-0.182,-9.864,0,-0.001,0,6525,2021-01-15 19:00:40:807
0.019,-0.182,-9.864,0,-0.001,0,6535,2021-01-15 19:00:40:817
0.019,-0.182,-9.864,0,-0.001,0,6545,2021-01-15 19:00:40:827
0.007,-0.18,-9.862,0,-0.001,0,6556,2021-01-15 19:00:40:838
0.007,-0.18,-9.862,0,-0.001,0,6565,2021-01-15 19:00:40:847
0.007,-0.18,-9.862,0,-0.001,0,6575,2021-01-15 19:00:40:857
0.007,-0.18,-9.862,0,-0.001,0,6585,2021-01-15 19:00:40:867
0.007,-0.18,-9.862,0,0,0,6595,2021-01-15 19:00:40:877
0.007,-0.18,-9.862,0,0,0,6606,2021-01-15 19:00:40:888
0.043,-0.194,-9.869,0,0,0,6615,2021-01-15 19:00:40:897
0.043,-0.194,-9.869,0,0,0,6627,2021-01-15 19:00:40:909
0.043,-0.194,-9.869,0,0,0,6636,2021-01-15 19:00:40:918
0.043,-0.194,-9.869,0,0,0,6645,2021-01-15 19:00:40:927
0.043,-0.194,-9.869,0,0,0,6655,2021-01-15 19:00:40:937
0.043,-0.194,-9.869,0,0,0,6665,2021-01-15 19:00:40:947
0.031,-0.184,-9.855,0,0,0,6675,2021-01-15 19:00:40:957
0.031,-0.184,-9.855,0,0,0,6684,2021-01-15 19:00:40:966
0.031,-0.184,-9.855,0,0,0,6695,2021-01-15 19:00:40:977
0.031,-0.184,-9.855,0,0,0,6706,2021-01-15 19:00:40:988
0.031,-0.184,-9.855,0,-0.001,0,6715,2021-01-15 19:00:40:997
0.031,-0.184,-9.855,0,-0.001,0,6725,2021-01-15 19:00:41:007
0.024,-0.168,-9.879,0,-0.001,0,6735,2021-01-15 19:00:41:017
0.024,-0.168,-9.879,0,-0.001,0,6745,2021-01-15 19:00:41:027
0.024,-0.168,-9.879,0,-0.001,0,6755,2021-01-15 19:00:41:037
0.024,-0.168,-9.879,0,-0.001,0,6765,2021-01-15 19:00:41:047
0.024,-0.168,-9.879,0,-0.001,0,6775,2021-01-15 19:00:41:057
0.024,-0.168,-9.879,0,-0.001,0,6785,2021-01-15 19:00:41:067
0.026,-0.187,-9.862,0,-0.001,0,6795,2021-01-15 19:00:41:077
0.026,-0.187,-9.862,0,-0.001,0,6805,2021-01-15 19:00:41:087
0.026,-0.187,-9.862,0,-0.001,0,6814,2021-01-15 19:00:41:096
0.026,-0.187,-9.862,0,-0.001,0,6825,2021-01-15 19:00:41:107
0.026,-0.187,-9.862,0,-0.001,0,6836,2021-01-15 19:00:41:118
0.026,-0.187,-9.862,0,-0.001,0,6845,2021-01-15 19:00:41:127
0.014,-0.182,-9.872,0,-0.001,0,6855,2021-01-15 19:00:41:137
0.014,-0.182,-9.872,0,-0.001,0,6865,2021-01-15 19:00:41:147
0.014,-0.182,-9.872,0,-0.001,0,6875,2021-01-15 19:00:41:157
0.014,-0.182,-9.872,0,-0.001,0,6885,2021-01-15 19:00:41:167
0.014,-0.182,-9.872,0,-0.001,0,6895,2021-01-15 19:00:41:177
0.014,-0.182,-9.872,0,-0.001,0,6905,2021-01-15 19:00:41:187
0.029,-0.177,-9.874,0,-0.001,0,6915,2021-01-15 19:00:41:197
0.029,-0.177,-9.874,0,-0.001,0,6925,2021-01-15 19:00:41:207
0.029,-0.177,-9.874,0,-0.001,0,6935,2021-01-15 19:00:41:217
0.029,-0.177,-9.874,0,-0.001,0,6945,2021-01-15 19:00:41:227
0.029,-0.177,-9.874,0,-0.001,0,6955,2021-01-15 19:00:41:237
0.029,-0.177,-9.874,0,-0.001,0,6965,2021-01-15 19:00:41:247
0.029,-0.168,-9.867,0,-0.001,0,6975,2021-01-15 19:00:41:257
0.029,-0.168,-9.867,0,-0.001,0,6985,2021-01-15 19:00:41:267
0.029,-0.168,-9.867,0,-0.001,0,6995,2021-01-15 19:00:41:277
0.029,-0.168,-9.867,0,-0.001,0,7005,2021-01-15 19:00:41:287
0.029,-0.168,-9.867,0,-0.001,0,7015,2021-01-15 19:00:41:297
0.029,-0.168,-9.867,0,-0.001,0,7026,2021-01-15 19:00:41:308
0.026,-0.184,-9.876,0,-0.001,0,7036,2021-01-15 19:00:41:318
0.026,-0.184,-9.876,0,-0.001,0,7045,2021-01-15 19:00:41:327
0.026,-0.184,-9.876,0,-0.001,0,7055,2021-01-15 19:00:41:337
0.026,-0.184,-9.876,0,-0.001,0,7065,2021-01-15 19:00:41:347
0.026,-0.184,-9.876,0,0,0,7076,2021-01-15 19:00:41:358
0.026,-0.184,-9.876,0,0,0,7085,2021-01-15 19:00:41:367
0.029,-0.189,-9.881,0,0,0,7095,2021-01-15 19:00:41:377
0.029,-0.189,-9.881,0,0,0,7105,2021-01-15 19:00:41:387
0.029,-0.189,-9.881,0,0,0,7115,2021-01-15 19:00:41:397
0.029,-0.189,-9.881,0,0,0,7125,2021-01-15 19:00:41:407
0.029,-0.189,-9.881,0,0,0,7135,2021-01-15 19:00:41:417
0.029,-0.189,-9.881,0,0,0,7145,2021-01-15 19:00:41:427
0.014,-0.184,-9.869,0,0,0,7155,2021-01-15 19:00:41:437
0.014,-0.184,-9.869,0,0,0,7165,2021-01-15 19:00:41:447
0.014,-0.184,-9.869,0,0,0,7175,2021-01-15 19:00:41:457
0.014,-0.184,-9.869,0,0,0,7185,2021-01-15 19:00:41:467
0.014,-0.184,-9.869,0,-0.001,0,7195,2021-01-15 19:00:41:477
0.014,-0.184,-9.869,0,-0.001,0,7205,2021-01-15 19:00:41:487
0.024,-0.17,-9.881,0,-0.001,0,7215,2021-01-15 19:00:41:497
0.024,-0.17,-9.881,0,-0.001,0,7225,2021-01-15 19:00:41:507
0.024,-0.17,-9.881,0,-0.001,0,7235,2021-01-15 19:00:41:517
0.024,-0.17,-9.881,0,-0.001,0,7246,2021-01-15 19:00:41:528
0.024,-0.17,-9.881,0,-0.001,0,7255,2021-01-15 19:00:41:537
0.024,-0.17,-9.881,0,-0.001,0,7265,2021-01-15 19:00:41:547
0.038,-0.187,-9.86,0,-0.001,0,7275,2021-01-15 19:00:41:557
0.038,-0.187,-9.86,0,-0.001,0,7285,2021-01-15 19:00:41:567
0.038,-0.187,-9.86,0,-0.001,0,7295,2021-01-15 19:00:41:577
0.038,-0.187,-9.86,0,-0.001,0,7307,2021-01-15 19:00:41:589
0.038,-0.187,-9.86,0,-0.001,0,7316,2021-01-15 19:00:41:598
0.038,-0.187,-9.86,0,-0.001,0,7326,2021-01-15 19:00:41:608
0.034,-0.199,-9.85,0,-0.001,0,7335,2021-01-15 19:00:41:617
0.034,-0.199,-9.85,0,-0.001,0,7345,2021-01-15 19:00:41:627
0.034,-0.199,-9.85,0,-0.001,0,7356,2021-01-15 19:00:41:638
0.034,-0.199,-9.85,0,-0.001,0,7365,2021-01-15 19:00:41:647
0.034,-0.199,-9.85,0,-0.001,0,7377,2021-01-15 19:00:41:659
0.034,-0.199,-9.85,0,-0.001,0,7386,2021-01-15 19:00:41:668
0.031,-0.189,-9.864,0,-0.001,0,7395,2021-01-15 19:00:41:677
0.031,-0.189,-9.864,0,-0.001,0,7405,2021-01-15 19:00:41:687
0.031,-0.189,-9.864,0,-0.001,0,7415,2021-01-15 19:00:41:697
0.031,-0.189,-9.864,0,-0.001,0,7425,2021-01-15 19:00:41:707
0.031,-0.189,-9.864,0,0,0,7435,2021-01-15 19:00:41:717
0.031,-0.189,-9.864,0,0,0,7445,2021-01-15 19:00:41:727
0.029,-0.194,-9.891,0,0,0,7455,2021-01-15 19:00:41:737
0.029,-0.194,-9.891,0,0,0,7465,2021-01-15 19:00:41:747
0.029,-0.194,-9.891,0,0,0,7475,2021-01-15 19:00:41:757
0.029,-0.194,-9.891,0,0,0,7485,2021-01-15 19:00:41:767
0.029,-0.194,-9.891,0,0,0,7495,2021-01-15 19:00:41:777
0.029,-0.194,-9.891,0,0,0,7505,2021-01-15 19:00:41:787
0.024,-0.192,-9.874,0,0,0,7515,2021-01-15 19:00:41:797
0.024,-0.192,-9.874,0,0,0,7525,2021-01-15 19:00:41:807
0.024,-0.192,-9.874,0,0,0,7535,2021-01-15 19:00:41:817
0.024,-0.192,-9.874,0,0,0,7545,2021-01-15 19:00:41:827
0.024,-0.192,-9.874,0,0,0,7555,2021-01-15 19:00:41:837
0.024,-0.192,-9.874,0,0,0,7565,2021-01-15 19:00:41:847
0.019,-0.17,-9.855,0,0,0,7575,2021-01-15 19:00:41:857
0.019,-0.17,-9.855,0,0,0,7585,2021-01-15 19:00:41:867
0.019,-0.17,-9.855,0,0,0,7596,2021-01-15 19:00:41:878
0.019,-0.17,-9.855,0,0,0,7607,2021-01-15 19:00:41:889
0.019,-0.17,-9.855,0,0,0,7615,2021-01-15 19:00:41:897
0.019,-0.17,-9.855,0,0,0,7625,2021-01-15 19:00:41:907
0.007,-0.192,-9.86,0,0,0,7635,2021-01-15 19:00:41:917
0.007,-0.192,-9.86,0,0,0,7645,2021-01-15 19:00:41:927
0.007,-0.192,-9.86,0,0,0,7655,2021-01-15 19:00:41:937
0.007,-0.192,-9.86,0,0,0,7665,2021-01-15 19:00:41:947
0.007,-0.192,-9.86,0,0,0,7675,2021-01-15 19:00:41:957
0.007,-0.192,-9.86,0,0,0,7686,2021-01-15 19:00:41:968
0.019,-0.177,-9.857,0,0,0,7695,2021-01-15 19:00:41:977
0.019,-0.177,-9.857,0,0,0,7706,2021-01-15 19:00:41:988
0.019,-0.177,-9.857,0,0,0,7715,2021-01-15 19:00:41:997
0.019,-0.177,-9.857,0,0,0,7725,2021-01-15 19:00:42:007
0.019,-0.177,-9.857,0,0,0,7735,2021-01-15 19:00:42:017
0.019,-0.177,-9.857,0,0,0,7745,2021-01-15 19:00:42:027
0.041,-0.182,-9.867,0,0,0,7756,2021-01-15 19:00:42:038
0.041,-0.182,-9.867,0,0,0,7765,2021-01-15 19:00:42:047
0.041,-0.182,-9.867,0,0,0,7775,2021-01-15 19:00:42:057
0.041,-0.182,-9.867,0,0,0,7785,2021-01-15 19:00:42:067
0.041,-0.182,-9.867,0,-0.001,0,7795,2021-01-15 19:00:42:077
0.041,-0.182,-9.867,0,-0.001,0,7808,2021-01-15 19:00:42:090
0.017,-0.196,-9.869,0,-0.001,0,7815,2021-01-15 19:00:42:097
0.017,-0.196,-9.869,0,-0.001,0,7825,2021-01-15 19:00:42:107
0.017,-0.196,-9.869,0,-0.001,0,7835,2021-01-15 19:00:42:117
0.017,-0.196,-9.869,0,-0.001,0,7845,2021-01-15 19:00:42:127
0.017,-0.196,-9.869,0,-0.001,0,7855,2021-01-15 19:00:42:137
0.017,-0.196,-9.869,0,-0.001,0,7865,2021-01-15 19:00:42:147
0.031,-0.187,-9.884,0,-0.001,0,7875,2021-01-15 19:00:42:157
0.031,-0.187,-9.884,0,-0.001,0,7885,2021-01-15 19:00:42:167
0.031,-0.187,-9.884,0,-0.001,0,7896,2021-01-15 19:00:42:178
0.031,-0.187,-9.884,0,-0.001,0,7905,2021-01-15 19:00:42:187
0.031,-0.187,-9.884,0,-0.001,0,7916,2021-01-15 19:00:42:198
0.031,-0.187,-9.884,0,-0.001,0,7926,2021-01-15 19:00:42:208
0.038,-0.18,-9.888,0,-0.001,0,7935,2021-01-15 19:00:42:217
0.038,-0.18,-9.888,0,-0.001,0,7945,2021-01-15 19:00:42:227
0.038,-0.18,-9.888,0,-0.001,0,7955,2021-01-15 19:00:42:237
0.038,-0.18,-9.888,0,-0.001,0,7965,2021-01-15 19:00:42:247
0.038,-0.18,-9.888,0,-0.001,0,7975,2021-01-15 19:00:42:257
0.038,-0.18,-9.888,0,-0.001,0,7985,2021-01-15 19:00:42:267
0.036,-0.192,-9.857,0,-0.001,0,7995,2021-01-15 19:00:42:277
0.036,-0.192,-9.857,0,-0.001,0,8006,2021-01-15 19:00:42:288
0.036,-0.192,-9.857,0,-0.001,0,8015,2021-01-15 19:00:42:297
0.036,-0.192,-9.857,0,-0.001,0,8027,2021-01-15 19:00:42:309
0.036,-0.192,-9.857,0,0,0,8035,2021-01-15 19:00:42:317
0.036,-0.192,-9.857,0,0,0,8051,2021-01-15 19:00:42:333
0.031,-0.187,-9.888,0,0,0,8055,2021-01-15 19:00:42:337
0.031,-0.187,-9.888,0,0,0,8065,2021-01-15 19:00:42:347
0.031,-0.187,-9.888,0,0,0,8076,2021-01-15 19:00:42:358
0.031,-0.187,-9.888,0,0,0,8086,2021-01-15 19:00:42:368
0.031,-0.187,-9.888,0,0,0,8095,2021-01-15 19:00:42:377
0.031,-0.187,-9.888,0,0,0,8108,2021-01-15 19:00:42:390
0.024,-0.177,-9.886,0,0,0,8115,2021-01-15 19:00:42:397
0.024,-0.177,-9.886,0,0,0,8125,2021-01-15 19:00:42:407
0.024,-0.177,-9.886,0,0,0,8135,2021-01-15 19:00:42:417
0.024,-0.177,-9.886,0,0,0,8145,2021-01-15 19:00:42:427
0.024,-0.177,-9.886,0,-0.001,0,8158,2021-01-15 19:00:42:440
0.024,-0.177,-9.886,0,-0.001,0,8165,2021-01-15 19:00:42:447
0.022,-0.196,-9.876,0,-0.001,0,8175,2021-01-15 19:00:42:457
0.022,-0.196,-9.876,0,-0.001,0,8186,2021-01-15 19:00:42:468
0.022,-0.196,-9.876,0,-0.001,0,8195,2021-01-15 19:00:42:477
0.022,-0.196,-9.876,0,-0.001,0,8205,2021-01-15 19:00:42:487
0.022,-0.196,-9.876,0,-0.001,0,8215,2021-01-15 19:00:42:497
0.022,-0.196,-9.876,0,-0.001,0,8226,2021-01-15 19:00:42:508
0.031,-0.182,-9.852,0,-0.001,0,8236,2021-01-15 19:00:42:518
0.031,-0.182,-9.852,0,-0.001,0,8245,2021-01-15 19:00:42:527
0.031,-0.182,-9.852,0,-0.001,0,8255,2021-01-15 19:00:42:537
0.031,-0.182,-9.852,0,-0.001,0,8266,2021-01-15 19:00:42:548
0.031,-0.182,-9.852,0,0.001,0,8275,2021-01-15 19:00:42:557
0.031,-0.182,-9.852,0,0.001,0,8285,2021-01-15 19:00:42:567
0.022,-0.182,-9.867,0,0.001,0,8297,2021-01-15 19:00:42:579
0.022,-0.182,-9.867,0,0.001,0,8306,2021-01-15 19:00:42:588
0.022,-0.182,-9.867,0,0.001,0,8315,2021-01-15 19:00:42:597
0.022,-0.182,-9.867,0,0.001,0,8325,2021-01-15 19:00:42:607
0.022,-0.182,-9.867,0,0.001,0,8335,2021-01-15 19:00:42:617
0.022,-0.182,-9.867,0,0.001,0,8345,2021-01-15 19:00:42:627
0.024,-0.204,-9.876,0,0.001,0,8355,2021-01-15 19:00:42:637
0.024,-0.204,-9.876,0,0.001,0,8366,2021-01-15 19:00:42:648
0.024,-0.204,-9.876,0,0.001,0,8376,2021-01-15 19:00:42:658
0.024,-0.204,-9.876,0,0.001,0,8385,2021-01-15 19:00:42:667
0.024,-0.204,-9.876,0,0,0,8396,2021-01-15 19:00:42:678
0.024,-0.204,-9.876,0,0,0,8409,2021-01-15 19:00:42:691
0.024,-0.18,-9.86,0,0,0,8416,2021-01-15 19:00:42:698
0.024,-0.18,-9.86,0,0,0,8425,2021-01-15 19:00:42:707
0.024,-0.18,-9.86,0,0,0,8435,2021-01-15 19:00:42:717
0.024,-0.18,-9.86,0,0,0,8446,2021-01-15 19:00:42:728
0.024,-0.18,-9.86,0,0,0,8455,2021-01-15 19:00:42:737
0.024,-0.18,-9.86,0,0,0,8465,2021-01-15 19:00:42:747
0.024,-0.182,-9.872,0,0,0,8477,2021-01-15 19:00:42:759
0.024,-0.182,-9.872,0,0,0,8485,2021-01-15 19:00:42:767
0.024,-0.182,-9.872,0,0,0,8495,2021-01-15 19:00:42:777
0.024,-0.182,-9.872,0,0,0,8505,2021-01-15 19:00:42:787
0.024,-0.182,-9.872,0,0,0,8515,2021-01-15 19:00:42:797
0.024,-0.182,-9.872,0,0,0,8525,2021-01-15 19:00:42:807
0.019,-0.189,-9.838,0,0,0,8535,2021-01-15 19:00:42:817
0.019,-0.189,-9.838,0,0,0,8545,2021-01-15 19:00:42:827
0.019,-0.189,-9.838,0,0,0,8555,2021-01-15 19:00:42:837
0.019,-0.189,-9.838,0,0,0,8565,2021-01-15 19:00:42:847
0.019,-0.189,-9.838,0,0,0,8575,2021-01-15 19:00:42:857
0.019,-0.189,-9.838,0,0,0,8586,2021-01-15 19:00:42:868
0.019,-0.18,-9.852,0,0,0,8595,2021-01-15 19:00:42:877
0.019,-0.18,-9.852,0,0,0,8605,2021-01-15 19:00:42:887
0.019,-0.18,-9.852,0,0,0,8615,2021-01-15 19:00:42:897
0.019,-0.18,-9.852,0,0,0,8625,2021-01-15 19:00:42:907
0.019,-0.18,-9.852,0,0,0,8640,2021-01-15 19:00:42:922
0.019,-0.18,-9.852,0,0,0,8645,2021-01-15 19:00:42:927
0.007,-0.163,-9.874,0,0,0,8655,2021-01-15 19:00:42:937
0.007,-0.163,-9.874,0,0,0,8666,2021-01-15 19:00:42:948
0.007,-0.163,-9.874,0,0,0,8675,2021-01-15 19:00:42:957
0.007,-0.163,-9.874,0,0,0,8685,2021-01-15 19:00:42:967
0.007,-0.163,-9.874,0,0,0,8695,2021-01-15 19:00:42:977
0.007,-0.163,-9.874,0,0,0,8705,2021-01-15 19:00:42:987
0.022,-0.184,-9.876,0,0,0,8715,2021-01-15 19:00:42:997
0.022,-0.184,-9.876,0,0,0,8725,2021-01-15 19:00:43:007
0.022,-0.184,-9.876,0,0,0,8735,2021-01-15 19:00:43:017
0.022,-0.184,-9.876,0,0,0,8745,2021-01-15 19:00:43:027
0.022,-0.184,-9.876,0,0,0,8755,2021-01-15 19:00:43:037
0.022,-0.184,-9.876,0,-0.001,0,8766,2021-01-15 19:00:43:048
0.029,-0.177,-9.867,0,-0.001,0,8775,2021-01-15 19:00:43:057
0.029,-0.177,-9.867,0,-0.001,0,8786,2021-01-15 19:00:43:068
0.029,-0.177,-9.867,0,-0.001,0,8795,2021-01-15 19:00:43:077
0.029,-0.177,-9.867,0,-0.001,0,8805,2021-01-15 19:00:43:087
0.029,-0.177,-9.867,0,-0.001,0,8815,2021-01-15 19:00:43:097
0.029,-0.177,-9.867,0,-0.001,0,8825,2021-01-15 19:00:43:107
0.019,-0.177,-9.874,0,-0.001,0,8836,2021-01-15 19:00:43:118
0.019,-0.177,-9.874,0,-0.001,0,8845,2021-01-15 19:00:43:127
0.019,-0.177,-9.874,0,-0.001,0,8855,2021-01-15 19:00:43:137
0.019,-0.177,-9.874,0,-0.001,0,8865,2021-01-15 19:00:43:147
0.019,-0.177,-9.874,0,0,0,8875,2021-01-15 19:00:43:157
0.019,-0.177,-9.874,0,0,0,8885,2021-01-15 19:00:43:167
0.024,-0.192,-9.867,0,0,0,8899,2021-01-15 19:00:43:181
0.024,-0.192,-9.867,0,0,0,8905,2021-01-15 19:00:43:187
0.024,-0.192,-9.867,0,0,0,8915,2021-01-15 19:00:43:197
0.024,-0.192,-9.867,0,0,0,8925,2021-01-15 19:00:43:207
0.024,-0.192,-9.867,0,0,0,8935,2021-01-15 19:00:43:217
0.024,-0.192,-9.867,0,0,0,8945,2021-01-15 19:00:43:227
0.01,-0.189,-9.86,0,0,0,8955,2021-01-15 19:00:43:237
0.01,-0.189,-9.86,0,0,0,8965,2021-01-15 19:00:43:247
0.01,-0.189,-9.86,0,0,0,8975,2021-01-15 19:00:43:257
0.01,-0.189,-9.86,0,0,0,8985,2021-01-15 19:00:43:267
0.01,-0.189,-9.86,0,-0.001,0,8995,2021-01-15 19:00:43:277
0.01,-0.189,-9.86,0,-0.001,0,9005,2021-01-15 19:00:43:287
0.007,-0.194,-9.876,0,-0.001,0,9015,2021-01-15 19:00:43:297
0.007,-0.194,-9.876,0,-0.001,0,9025,2021-01-15 19:00:43:307
0.007,-0.194,-9.876,0,-0.001,0,9035,2021-01-15 19:00:43:317
0.007,-0.194,-9.876,0,-0.001,0,9045,2021-01-15 19:00:43:327
0.007,-0.194,-9.876,0,-0.001,0,9055,2021-01-15 19:00:43:337
0.007,-0.194,-9.876,0,-0.001,0,9065,2021-01-15 19:00:43:347
0.019,-0.189,-9.852,0,-0.001,0,9075,2021-01-15 19:00:43:357
0.019,-0.189,-9.852,0,-0.001,0,9085,2021-01-15 19:00:43:367
0.019,-0.189,-9.852,0,-0.001,0,9095,2021-01-15 19:00:43:377
0.019,-0.189,-9.852,0,-0.001,0,9105,2021-01-15 19:00:43:387
0.019,-0.189,-9.852,0,-0.001,0,9115,2021-01-15 19:00:43:397
0.019,-0.189,-9.852,0,-0.001,0,9125,2021-01-15 19:00:43:407
0.012,-0.189,-9.888,0,-0.001,0,9137,2021-01-15 19:00:43:419
0.012,-0.189,-9.888,0,-0.001,0,9146,2021-01-15 19:00:43:428
0.012,-0.189,-9.888,0,-0.001,0,9155,2021-01-15 19:00:43:437
0.012,-0.189,-9.888,0,-0.001,0,9165,2021-01-15 19:00:43:447
0.012,-0.189,-9.888,0,-0.001,0,9176,2021-01-15 19:00:43:458
0.012,-0.189,-9.888,0,-0.001,0,9185,2021-01-15 19:00:43:467
0.024,-0.18,-9.874,0,-0.001,0,9195,2021-01-15 19:00:43:477
0.024,-0.18,-9.874,0,-0.001,0,9206,2021-01-15 19:00:43:488
0.024,-0.18,-9.874,0,-0.001,0,9216,2021-01-15 19:00:43:498
0.024,-0.18,-9.874,0,-0.001,0,9225,2021-01-15 19:00:43:507
0.024,-0.18,-9.874,0,0,0,9235,2021-01-15 19:00:43:517
0.024,-0.18,-9.874,0,0,0,9245,2021-01-15 19:00:43:527
0.022,-0.194,-9.857,0,0,0,9255,2021-01-15 19:00:43:537
0.022,-0.194,-9.857,0,0,0,9266,2021-01-15 19:00:43:548
0.022,-0.194,-9.857,0,0,0,9275,2021-01-15 19:00:43:557
0.022,-0.194,-9.857,0,0,0,9285,2021-01-15 19:00:43:567
0.022,-0.194,-9.857,0,0,0,9295,2021-01-15 19:00:43:577
0.022,-0.194,-9.857,0,0,0,9305,2021-01-15 19:00:43:587
0.034,-0.18,-9.867,0,0,0,9315,2021-01-15 19:00:43:597
0.034,-0.18,-9.867,0,0,0,9325,2021-01-15 19:00:43:607
0.034,-0.18,-9.867,0,0,0,9335,2021-01-15 19:00:43:617
0.034,-0.18,-9.867,0,0,0,9347,2021-01-15 19:00:43:629
0.034,-0.18,-9.867,0,0,0,9355,2021-01-15 19:00:43:637
0.034,-0.18,-9.867,0,0,0,9365,2021-01-15 19:00:43:647
0.019,-0.18,-9.867,0,0,0,9375,2021-01-15 19:00:43:657
0.019,-0.18,-9.867,0,0,0,9385,2021-01-15 19:00:43:667
0.019,-0.18,-9.867,0,0,0,9395,2021-01-15 19:00:43:677
0.019,-0.18,-9.867,0,0,0,9405,2021-01-15 19:00:43:687
0.019,-0.18,-9.867,0,0,0,9415,2021-01-15 19:00:43:697
0.019,-0.18,-9.867,0,0,0,9425,2021-01-15 19:00:43:707
0.022,-0.184,-9.884,0,0,0,9436,2021-01-15 19:00:43:718
0.022,-0.184,-9.884,0,0,0,9445,2021-01-15 19:00:43:727
0.022,-0.184,-9.884,0,0,0,9455,2021-01-15 19:00:43:737
0.022,-0.184,-9.884,0,0,0,9465,2021-01-15 19:00:43:747
0.022,-0.184,-9.884,0,0,0,9475,2021-01-15 19:00:43:757
0.022,-0.184,-9.884,0,0,0,9486,2021-01-15 19:00:43:768
0.017,-0.172,-9.876,0,0,0,9495,2021-01-15 19:00:43:777
0.017,-0.172,-9.876,0,0,0,9505,2021-01-15 19:00:43:787
0.017,-0.172,-9.876,0,0,0,9515,2021-01-15 19:00:43:797
0.017,-0.172,-9.876,0,0,0,9525,2021-01-15 19:00:43:807
0.017,-0.172,-9.876,0,0,0,9535,2021-01-15 19:00:43:817
0.017,-0.172,-9.876,0,0,0,9546,2021-01-15 19:00:43:828
0.01,-0.182,-9.876,0,0,0,9556,2021-01-15 19:00:43:838
0.01,-0.182,-9.876,0,0,0,9565,2021-01-15 19:00:43:847
0.01,-0.182,-9.876,0,0,0,9577,2021-01-15 19:00:43:859
0.01,-0.182,-9.876,0,0,0,9585,2021-01-15 19:00:43:867
0.01,-0.182,-9.876,0,-0.001,0,9596,2021-01-15 19:00:43:878
0.05,-0.172,-9.862,0,-0.001,0,9620,2021-01-15 19:00:43:902
0.05,-0.172,-9.862,0,-0.001,0,9621,2021-01-15 19:00:43:903
0.05,-0.172,-9.862,0,-0.001,0,9628,2021-01-15 19:00:43:910
0.05,-0.172,-9.862,0,-0.001,0,9635,2021-01-15 19:00:43:917
0.05,-0.172,-9.862,0,-0.001,0,9645,2021-01-15 19:00:43:927
0.05,-0.172,-9.862,0,-0.001,0,9655,2021-01-15 19:00:43:937
0.05,-0.172,-9.862,0,-0.001,0,9666,2021-01-15 19:00:43:948
0.019,-0.192,-9.884,0,-0.001,0,9675,2021-01-15 19:00:43:957
0.019,-0.192,-9.884,0,-0.001,0,9685,2021-01-15 19:00:43:967
0.019,-0.192,-9.884,0,-0.001,0,9696,2021-01-15 19:00:43:978
0.019,-0.192,-9.884,0,-0.001,0,9705,2021-01-15 19:00:43:987
0.019,-0.192,-9.884,0,-0.001,0,9715,2021-01-15 19:00:43:997
0.019,-0.192,-9.884,0,0,0,9726,2021-01-15 19:00:44:008
0.036,-0.168,-9.852,0,0,0,9736,2021-01-15 19:00:44:018
0.036,-0.168,-9.852,0,0,0,9747,2021-01-15 19:00:44:029
0.036,-0.168,-9.852,0,0,0,9755,2021-01-15 19:00:44:037
0.036,-0.168,-9.852,0,0,0,9765,2021-01-15 19:00:44:047
0.036,-0.168,-9.852,0,0,0,9775,2021-01-15 19:00:44:057
0.036,-0.168,-9.852,0,0,0,9786,2021-01-15 19:00:44:068
0.017,-0.182,-9.855,0,0,0,9795,2021-01-15 19:00:44:077
0.017,-0.182,-9.855,0,0,0,9805,2021-01-15 19:00:44:087
0.017,-0.182,-9.855,0,0,0,9815,2021-01-15 19:00:44:097
0.017,-0.182,-9.855,0,0,0,9825,2021-01-15 19:00:44:107
0.017,-0.182,-9.855,0,-0.001,0,9839,2021-01-15 19:00:44:121
0.017,-0.182,-9.855,0,-0.001,0,9845,2021-01-15 19:00:44:127
0.034,-0.172,-9.876,0,-0.001,0,9857,2021-01-15 19:00:44:139
0.034,-0.172,-9.876,0,-0.001,0,9871,2021-01-15 19:00:44:153
0.034,-0.172,-9.876,0,-0.001,0,9878,2021-01-15 19:00:44:160
0.034,-0.172,-9.876,0,-0.001,0,9886,2021-01-15 19:00:44:168
0.034,-0.172,-9.876,0,-0.001,0,9899,2021-01-15 19:00:44:181
0.034,-0.172,-9.876,0,-0.001,0,9905,2021-01-15 19:00:44:187
0.026,-0.18,-9.884,0,-0.001,0,9916,2021-01-15 19:00:44:198
0.026,-0.18,-9.884,0,-0.001,0,9925,2021-01-15 19:00:44:207
0.026,-0.18,-9.884,0,-0.001,0,9935,2021-01-15 19:00:44:217
0.026,-0.18,-9.884,0,-0.001,0,9947,2021-01-15 19:00:44:229
0.026,-0.18,-9.884,0,0,0,9955,2021-01-15 19:00:44:237
0.026,-0.18,-9.884,0,0,0,9968,2021-01-15 19:00:44:250
0.029,-0.192,-9.857,0,0,0,9978,2021-01-15 19:00:44:260
0.029,-0.192,-9.857,0,0,0,9988,2021-01-15 19:00:44:270
0.029,-0.192,-9.857,0,0,0,9996,2021-01-15 19:00:44:278
0.029,-0.192,-9.857,0,0,0,10005,2021-01-15 19:00:44:287
0.029,-0.192,-9.857,0,0,0,10015,2021-01-15 19:00:44:297
0.029,-0.192,-9.857,0,0,0,10025,2021-01-15 19:00:44:307
0.014,-0.182,-9.852,0,0,0,10035,2021-01-15 19:00:44:317
0.014,-0.182,-9.852,0,0,0,10045,2021-01-15 19:00:44:327
0.014,-0.182,-9.852,0,0,0,10055,2021-01-15 19:00:44:337
0.014,-0.182,-9.852,0,0,0,10066,2021-01-15 19:00:44:348
0.014,-0.182,-9.852,0,0,0,10075,2021-01-15 19:00:44:357
0.014,-0.182,-9.852,0,0,0,10085,2021-01-15 19:00:44:367
0.024,-0.182,-9.881,0,0,0,10097,2021-01-15 19:00:44:379
0.024,-0.182,-9.881,0,0,0,10105,2021-01-15 19:00:44:387
0.024,-0.182,-9.881,0,0,0,10115,2021-01-15 19:00:44:397
0.024,-0.182,-9.881,0,0,0,10125,2021-01-15 19:00:44:407
0.024,-0.182,-9.881,0,0,0,10135,2021-01-15 19:00:44:417
0.024,-0.182,-9.881,0,0,0,10145,2021-01-15 19:00:44:427
0.007,-0.182,-9.857,0,0,0,10155,2021-01-15 19:00:44:437
0.007,-0.182,-9.857,0,0,0,10166,2021-01-15 19:00:44:448
0.007,-0.182,-9.857,0,0,0,10175,2021-01-15 19:00:44:457
0.007,-0.182,-9.857,0,0,0,10185,2021-01-15 19:00:44:467
0.007,-0.182,-9.857,0,0,0,10199,2021-01-15 19:00:44:481
0.007,-0.182,-9.857,0,0,0,10205,2021-01-15 19:00:44:487
0.048,-0.184,-9.864,0,0,0,10218,2021-01-15 19:00:44:500
0.048,-0.184,-9.864,0,0,0,10226,2021-01-15 19:00:44:508
0.048,-0.184,-9.864,0,0,0,10235,2021-01-15 19:00:44:517
0.048,-0.184,-9.864,0,0,0,10245,2021-01-15 19:00:44:527
0.048,-0.184,-9.864,0,0,0,10256,2021-01-15 19:00:44:538
0.048,-0.184,-9.864,0,0,0,10268,2021-01-15 19:00:44:550
0.031,-0.18,-9.869,0,0,0,10276,2021-01-15 19:00:44:558
0.031,-0.18,-9.869,0,0,0,10285,2021-01-15 19:00:44:567
0.031,-0.18,-9.869,0,0,0,10295,2021-01-15 19:00:44:577
0.031,-0.18,-9.869,0,0,0,10306,2021-01-15 19:00:44:588
0.031,-0.18,-9.869,0,0,0,10317,2021-01-15 19:00:44:599
0.031,-0.18,-9.869,0,0,0,10328,2021-01-15 19:00:44:610
0.036,-0.175,-9.879,0,0,0,10337,2021-01-15 19:00:44:619
0.036,-0.175,-9.879,0,0,0,10345,2021-01-15 19:00:44:627
0.036,-0.175,-9.879,0,0,0,10356,2021-01-15 19:00:44:638
0.036,-0.175,-9.879,0,0,0,10365,2021-01-15 19:00:44:647
0.036,-0.175,-9.879,0,0,0,10375,2021-01-15 19:00:44:657
0.036,-0.175,-9.879,0,0,0,10385,2021-01-15 19:00:44:667
0.022,-0.192,-9.852,0,0,0,10395,2021-01-15 19:00:44:677
0.022,-0.192,-9.852,0,0,0,10406,2021-01-15 19:00:44:688
0.022,-0.192,-9.852,0,0,0,10415,2021-01-15 19:00:44:697
0.022,-0.192,-9.852,0,0,0,10425,2021-01-15 19:00:44:707
0.022,-0.192,-9.852,0,0,0,10440,2021-01-15 19:00:44:722
0.022,-0.192,-9.852,0,0,0,10445,2021-01-15 19:00:44:727
0.036,-0.187,-9.857,0,0,0,10456,2021-01-15 19:00:44:738
0.036,-0.187,-9.857,0,0,0,10467,2021-01-15 19:00:44:749
0.036,-0.187,-9.857,0,0,0,10475,2021-01-15 19:00:44:757
0.036,-0.187,-9.857,0,0,0,10486,2021-01-15 19:00:44:768
0.036,-0.187,-9.857,0,0,0,10496,2021-01-15 19:00:44:778
0.036,-0.187,-9.857,0,0,0,10505,2021-01-15 19:00:44:787
0.036,-0.187,-9.857,0,0,0,10515,2021-01-15 19:00:44:797
0.029,-0.182,-9.867,0,0,0,10525,2021-01-15 19:00:44:807
0.029,-0.182,-9.867,0,0,0,10535,2021-01-15 19:00:44:817
0.029,-0.182,-9.867,0,0,0,10545,2021-01-15 19:00:44:827
0.029,-0.182,-9.867,0,0,0,10555,2021-01-15 19:00:44:837
0.029,-0.182,-9.867,0,0,0,10565,2021-01-15 19:00:44:847
0.024,-0.189,-9.864,0,0,0,10575,2021-01-15 19:00:44:857
0.024,-0.189,-9.864,0,0,0,10586,2021-01-15 19:00:44:868
0.024,-0.189,-9.864,0,0,0,10595,2021-01-15 19:00:44:877
0.024,-0.189,-9.864,0,0,0,10605,2021-01-15 19:00:44:887
0.024,-0.189,-9.864,0,0,0,10620,2021-01-15 19:00:44:902
0.024,-0.189,-9.864,0,0,0,10625,2021-01-15 19:00:44:907
0.036,-0.189,-9.884,0,0,0,10635,2021-01-15 19:00:44:917
0.036,-0.189,-9.884,0,0,0,10645,2021-01-15 19:00:44:927
0.036,-0.189,-9.884,0,0,0,10655,2021-01-15 19:00:44:937
0.036,-0.189,-9.884,0,0,0,10668,2021-01-15 19:00:44:950
0.036,-0.189,-9.884,0,0,0,10676,2021-01-15 19:00:44:958
0.036,-0.189,-9.884,0,0,0,10685,2021-01-15 19:00:44:967
0.024,-0.182,-9.855,0,0,0,10695,2021-01-15 19:00:44:977
0.024,-0.182,-9.855,0,0,0,10705,2021-01-15 19:00:44:987
0.024,-0.182,-9.855,0,0,0,10716,2021-01-15 19:00:44:998
0.024,-0.182,-9.855,0,0,0,10725,2021-01-15 19:00:45:007
0.024,-0.182,-9.855,0,0,0,10735,2021-01-15 19:00:45:017
0.024,-0.182,-9.855,0,0,0,10745,2021-01-15 19:00:45:027
0.024,-0.184,-9.869,0,0,0,10755,2021-01-15 19:00:45:037
0.024,-0.184,-9.869,0,0,0,10765,2021-01-15 19:00:45:047
0.024,-0.184,-9.869,0,0,0,10775,2021-01-15 19:00:45:057
0.024,-0.184,-9.869,0,0,0,10785,2021-01-15 19:00:45:067
0.024,-0.184,-9.869,0,0,0,10800,2021-01-15 19:00:45:082
0.024,-0.184,-9.869,0,0,0,10805,2021-01-15 19:00:45:087
0.026,-0.192,-9.855,0,0,0,10816,2021-01-15 19:00:45:098
0.026,-0.192,-9.855,0,0,0,10825,2021-01-15 19:00:45:107
0.026,-0.192,-9.855,0,0,0,10835,2021-01-15 19:00:45:117
0.026,-0.192,-9.855,0,0,0,10845,2021-01-15 19:00:45:127
0.026,-0.192,-9.855,0,0,0,10855,2021-01-15 19:00:45:137
0.026,-0.192,-9.855,0,0,0,10865,2021-01-15 19:00:45:147
0.022,-0.194,-9.852,0,0,0,10875,2021-01-15 19:00:45:157
0.022,-0.194,-9.852,0,0,0,10885,2021-01-15 19:00:45:167
0.022,-0.194,-9.852,0,0,0,10895,2021-01-15 19:00:45:177
0.022,-0.194,-9.852,0,0,0,10905,2021-01-15 19:00:45:187
0.022,-0.194,-9.852,0,0,0,10915,2021-01-15 19:00:45:197
0.022,-0.194,-9.852,0,0,0,10925,2021-01-15 19:00:45:207
0.034,-0.189,-9.86,0,0,0,10935,2021-01-15 19:00:45:217
0.034,-0.189,-9.86,0,0,0,10945,2021-01-15 19:00:45:227
0.034,-0.189,-9.86,0,0,0,10955,2021-01-15 19:00:45:237
0.034,-0.189,-9.86,0,0,0,10965,2021-01-15 19:00:45:247
0.034,-0.189,-9.86,0,0,0,10975,2021-01-15 19:00:45:257
0.034,-0.189,-9.86,0,0,0,10985,2021-01-15 19:00:45:267
0.022,-0.165,-9.874,0,0,0,10995,2021-01-15 19:00:45:277
0.022,-0.165,-9.874,0,0,0,11005,2021-01-15 19:00:45:287
0.022,-0.165,-9.874,0,0,0,11015,2021-01-15 19:00:45:297
0.022,-0.165,-9.874,0,0,0,11025,2021-01-15 19:00:45:307
0.022,-0.165,-9.874,0,0,0,11035,2021-01-15 19:00:45:317
0.022,-0.165,-9.874,0,0,0,11045,2021-01-15 19:00:45:327
0.012,-0.192,-9.857,0,0,0,11055,2021-01-15 19:00:45:337
0.012,-0.192,-9.857,0,0,0,11065,2021-01-15 19:00:45:347
0.012,-0.192,-9.857,0,0,0,11075,2021-01-15 19:00:45:357
0.012,-0.192,-9.857,0,0,0,11085,2021-01-15 19:00:45:367
0.012,-0.192,-9.857,0,0,0,11095,2021-01-15 19:00:45:377
0.012,-0.192,-9.857,0,0,0,11105,2021-01-15 19:00:45:387
0.014,-0.172,-9.872,0,0,0,11115,2021-01-15 19:00:45:397
0.014,-0.172,-9.872,0,0,0,11125,2021-01-15 19:00:45:407
0.014,-0.172,-9.872,0,0,0,11135,2021-01-15 19:00:45:417
0.014,-0.172,-9.872,0,0,0,11146,2021-01-15 19:00:45:428
0.014,-0.172,-9.872,0,0,0,11155,2021-01-15 19:00:45:437
0.014,-0.172,-9.872,0,0,0,11165,2021-01-15 19:00:45:447
0.017,-0.196,-9.881,0,0,0,11175,2021-01-15 19:00:45:457
0.017,-0.196,-9.881,0,0,0,11185,2021-01-15 19:00:45:467
0.017,-0.196,-9.881,0,0,0,11196,2021-01-15 19:00:45:478
0.017,-0.196,-9.881,0,0,0,11205,2021-01-15 19:00:45:487
0.017,-0.196,-9.881,0,0,0,11215,2021-01-15 19:00:45:497
0.017,-0.196,-9.881,0,0,0,11225,2021-01-15 19:00:45:507
0.034,-0.184,-9.884,0,0,0,11235,2021-01-15 19:00:45:517
0.034,-0.184,-9.884,0,0,0,11245,2021-01-15 19:00:45:527
0.034,-0.184,-9.884,0,0,0,11255,2021-01-15 19:00:45:537
0.034,-0.184,-9.884,0,0,0,11265,2021-01-15 19:00:45:547
0.034,-0.184,-9.884,0,0,0,11275,2021-01-15 19:00:45:557
0.034,-0.184,-9.884,0,0,0,11285,2021-01-15 19:00:45:567
0.029,-0.172,-9.876,0,0,0,11297,2021-01-15 19:00:45:579
0.029,-0.172,-9.876,0,0,0,11305,2021-01-15 19:00:45:587
0.029,-0.172,-9.876,0,0,0,11315,2021-01-15 19:00:45:597
0.029,-0.172,-9.876,0,0,0,11325,2021-01-15 19:00:45:607
0.029,-0.172,-9.876,0,0,0,11334,2021-01-15 19:00:45:616
0.029,-0.172,-9.876,0,0,0,11345,2021-01-15 19:00:45:627
0.017,-0.189,-9.857,0,0,0,11355,2021-01-15 19:00:45:637
0.017,-0.189,-9.857,0,0,0,11365,2021-01-15 19:00:45:647
0.017,-0.189,-9.857,0,0,0,11375,2021-01-15 19:00:45:657
0.017,-0.189,-9.857,0,0,0,11385,2021-01-15 19:00:45:667
0.017,-0.189,-9.857,0,0,0,11395,2021-01-15 19:00:45:677
0.017,-0.189,-9.857,0,0,0,11405,2021-01-15 19:00:45:687
0.029,-0.182,-9.869,0,0,0,11415,2021-01-15 19:00:45:697
0.029,-0.182,-9.869,0,0,0,11425,2021-01-15 19:00:45:707
0.029,-0.182,-9.869,0,0,0,11435,2021-01-15 19:00:45:717
0.029,-0.182,-9.869,0,0,0,11445,2021-01-15 19:00:45:727
0.029,-0.182,-9.869,0,0,0,11455,2021-01-15 19:00:45:737
0.029,-0.182,-9.869,0,0,0,11465,2021-01-15 19:00:45:747
0.019,-0.182,-9.86,0,0,0,11475,2021-01-15 19:00:45:757
0.019,-0.182,-9.86,0,0,0,11485,2021-01-15 19:00:45:767
0.019,-0.182,-9.86,0,0,0,11495,2021-01-15 19:00:45:777
0.019,-0.182,-9.86,0,0,0,11505,2021-01-15 19:00:45:787
0.019,-0.182,-9.86,0,0,0,11515,2021-01-15 19:00:45:797
0.019,-0.182,-9.86,0,0,0,11525,2021-01-15 19:00:45:807
-0.002,-0.184,-9.879,0,0,0,11536,2021-01-15 19:00:45:818
-0.002,-0.184,-9.879,0,0,0,11545,2021-01-15 19:00:45:827
-0.002,-0.184,-9.879,0,0,0,11556,2021-01-15 19:00:45:838
-0.002,-0.184,-9.879,0,0,0,11565,2021-01-15 19:00:45:847
-0.002,-0.184,-9.879,0,0,0,11575,2021-01-15 19:00:45:857
-0.002,-0.184,-9.879,0,0,0,11585,2021-01-15 19:00:45:867
0.026,-0.175,-9.864,0,0,0,11595,2021-01-15 19:00:45:877
0.026,-0.175,-9.864,0,0,0,11605,2021-01-15 19:00:45:887
0.026,-0.175,-9.864,0,0,0,11616,2021-01-15 19:00:45:898
0.026,-0.175,-9.864,0,0,0,11625,2021-01-15 19:00:45:907
0.026,-0.175,-9.864,0,0,0,11635,2021-01-15 19:00:45:917
0.026,-0.175,-9.864,0,0,0,11649,2021-01-15 19:00:45:931
0.014,-0.177,-9.852,0,0,0,11655,2021-01-15 19:00:45:937
0.014,-0.177,-9.852,0,0,0,11665,2021-01-15 19:00:45:947
0.014,-0.177,-9.852,0,0,0,11675,2021-01-15 19:00:45:957
0.014,-0.177,-9.852,0,0,0,11686,2021-01-15 19:00:45:968
0.014,-0.177,-9.852,0,0,0,11695,2021-01-15 19:00:45:977
0.014,-0.177,-9.852,0,0,0,11705,2021-01-15 19:00:45:987
0.034,-0.189,-9.852,0,0,0,11715,2021-01-15 19:00:45:997
0.034,-0.189,-9.852,0,0,0,11725,2021-01-15 19:00:46:007
0.034,-0.189,-9.852,0,0,0,11735,2021-01-15 19:00:46:017
0.034,-0.189,-9.852,0,0,0,11745,2021-01-15 19:00:46:027
0.034,-0.189,-9.852,0,0,0,11755,2021-01-15 19:00:46:037
0.034,-0.189,-9.852,0,0,0,11765,2021-01-15 19:00:46:047
0.024,-0.18,-9.867,0,0,0,11775,2021-01-15 19:00:46:057
0.024,-0.18,-9.867,0,0,0,11785,2021-01-15 19:00:46:067
0.024,-0.18,-9.867,0,0,0,11795,2021-01-15 19:00:46:077
0.024,-0.18,-9.867,0,0,0,11805,2021-01-15 19:00:46:087
0.024,-0.18,-9.867,0,0,0,11815,2021-01-15 19:00:46:097
0.024,-0.18,-9.867,0,0,0,11825,2021-01-15 19:00:46:107
0.024,-0.172,-9.874,0,0,0,11835,2021-01-15 19:00:46:117
0.024,-0.172,-9.874,0,0,0,11845,2021-01-15 19:00:46:127
0.024,-0.172,-9.874,0,0,0,11855,2021-01-15 19:00:46:137
0.024,-0.172,-9.874,0,0,0,11865,2021-01-15 19:00:46:147
0.024,-0.172,-9.874,0,0,0,11875,2021-01-15 19:00:46:157
0.024,-0.172,-9.874,0,0,0,11885,2021-01-15 19:00:46:167
0.017,-0.163,-9.845,0,0,0,11895,2021-01-15 19:00:46:177
0.017,-0.163,-9.845,0,0,0,11905,2021-01-15 19:00:46:187
0.017,-0.163,-9.845,0,0,0,11915,2021-01-15 19:00:46:197
0.017,-0.163,-9.845,0,0,0,11926,2021-01-15 19:00:46:208
0.017,-0.163,-9.845,0,0,0,11935,2021-01-15 19:00:46:217
0.017,-0.163,-9.845,0,0,0,11945,2021-01-15 19:00:46:227
0.031,-0.194,-9.862,0,0,0,11955,2021-01-15 19:00:46:237
0.031,-0.194,-9.862,0,0,0,11964,2021-01-15 19:00:46:246
0.031,-0.194,-9.862,0,0,0,11975,2021-01-15 19:00:46:257
0.031,-0.194,-9.862,0,0,0,11986,2021-01-15 19:00:46:268
0.031,-0.194,-9.862,0,0,0,11995,2021-01-15 19:00:46:277
0.031,-0.194,-9.862,0,0,0,12007,2021-01-15 19:00:46:289
0.029,-0.16,-9.879,0,0,0,12015,2021-01-15 19:00:46:297
0.029,-0.16,-9.879,0,0,0,12028,2021-01-15 19:00:46:310
0.029,-0.16,-9.879,0,0,0,12037,2021-01-15 19:00:46:319
0.029,-0.16,-9.879,0,0,0,12045,2021-01-15 19:00:46:327
0.029,-0.16,-9.879,0,0,0,12055,2021-01-15 19:00:46:337
0.029,-0.16,-9.879,0,0,0,12065,2021-01-15 19:00:46:347
0.029,-0.175,-9.867,0,0,0,12075,2021-01-15 19:00:46:357
0.029,-0.175,-9.867,0,0,0,12085,2021-01-15 19:00:46:367
0.029,-0.175,-9.867,0,0,0,12095,2021-01-15 19:00:46:377
0.029,-0.175,-9.867,0,0,0,12105,2021-01-15 19:00:46:387
0.029,-0.175,-9.867,0,0,0,12115,2021-01-15 19:00:46:397
0.029,-0.175,-9.867,0,0,0,12125,2021-01-15 19:00:46:407
0.036,-0.184,-9.867,0,0,0,12135,2021-01-15 19:00:46:417
0.036,-0.184,-9.867,0,0,0,12145,2021-01-15 19:00:46:427
0.036,-0.184,-9.867,0,0,0,12155,2021-01-15 19:00:46:437
0.036,-0.184,-9.867,0,0,0,12165,2021-01-15 19:00:46:447
0.036,-0.184,-9.867,0,0,0,12175,2021-01-15 19:00:46:457
0.036,-0.184,-9.867,0,0,0,12185,2021-01-15 19:00:46:467
0.034,-0.187,-9.867,0,0,0,12195,2021-01-15 19:00:46:477
0.034,-0.187,-9.867,0,0,0,12206,2021-01-15 19:00:46:488
0.034,-0.187,-9.867,0,0,0,12216,2021-01-15 19:00:46:498
0.034,-0.187,-9.867,0,0,0,12226,2021-01-15 19:00:46:508
0.034,-0.187,-9.867,0,0,0,12235,2021-01-15 19:00:46:517
0.034,-0.187,-9.867,0,0,0,12245,2021-01-15 19:00:46:527
0.038,-0.189,-9.852,0,0,0,12255,2021-01-15 19:00:46:537
0.038,-0.189,-9.852,0,0,0,12265,2021-01-15 19:00:46:547
0.038,-0.189,-9.852,0,0,0,12275,2021-01-15 19:00:46:557
0.038,-0.189,-9.852,0,0,0,12286,2021-01-15 19:00:46:568
0.038,-0.189,-9.852,0,0,0,12295,2021-01-15 19:00:46:577
0.038,-0.189,-9.852,0,0,0,12306,2021-01-15 19:00:46:588
0.014,-0.187,-9.86,0,0,0,12316,2021-01-15 19:00:46:598
0.014,-0.187,-9.86,0,0,0,12325,2021-01-15 19:00:46:607
0.014,-0.187,-9.86,0,0,0,12335,2021-01-15 19:00:46:617
0.014,-0.187,-9.86,0,0,0,12345,2021-01-15 19:00:46:627
0.014,-0.187,-9.86,0,0,0,12355,2021-01-15 19:00:46:637
0.014,-0.187,-9.86,0,0,0,12365,2021-01-15 19:00:46:647
0.031,-0.182,-9.864,0,0,0,12376,2021-01-15 19:00:46:658
0.031,-0.182,-9.864,0,0,0,12385,2021-01-15 19:00:46:667
0.031,-0.182,-9.864,0,0,0,12395,2021-01-15 19:00:46:677
0.031,-0.182,-9.864,0,0,0,12405,2021-01-15 19:00:46:687
0.031,-0.182,-9.864,0,0,0,12415,2021-01-15 19:00:46:697
0.031,-0.182,-9.864,0,0,0,12425,2021-01-15 19:00:46:707
0.029,-0.182,-9.862,0,0,0,12435,2021-01-15 19:00:46:717
0.029,-0.182,-9.862,0,0,0,12445,2021-01-15 19:00:46:727
0.029,-0.182,-9.862,0,0,0,12456,2021-01-15 19:00:46:738
0.029,-0.182,-9.862,0,0,0,12465,2021-01-15 19:00:46:747
0.029,-0.182,-9.862,0,0,0,12475,2021-01-15 19:00:46:757
0.029,-0.182,-9.862,0,0,0,12485,2021-01-15 19:00:46:767
0.014,-0.192,-9.862,0,0,0,12496,2021-01-15 19:00:46:778
0.014,-0.192,-9.862,0,0,0,12506,2021-01-15 19:00:46:788
0.014,-0.192,-9.862,0,0,0,12515,2021-01-15 19:00:46:797
0.014,-0.192,-9.862,0,0,0,12525,2021-01-15 19:00:46:807
0.014,-0.192,-9.862,0,0,0,12535,2021-01-15 19:00:46:817
0.014,-0.192,-9.862,0,0,0,12545,2021-01-15 19:00:46:827
0.031,-0.184,-9.872,0,0,0,12555,2021-01-15 19:00:46:837
0.031,-0.184,-9.872,0,0,0,12565,2021-01-15 19:00:46:847
0.031,-0.184,-9.872,0,0,0,12577,2021-01-15 19:00:46:859
0.031,-0.184,-9.872,0,0,0,12585,2021-01-15 19:00:46:867
0.031,-0.184,-9.872,0,0,0,12595,2021-01-15 19:00:46:877
0.031,-0.184,-9.872,0,0,0,12605,2021-01-15 19:00:46:887
0.012,-0.194,-9.879,0,0,0,12615,2021-01-15 19:00:46:897
0.012,-0.194,-9.879,0,0,0,12625,2021-01-15 19:00:46:907
0.012,-0.194,-9.879,0,0,0,12635,2021-01-15 19:00:46:917
0.012,-0.194,-9.879,0,0,0,12645,2021-01-15 19:00:46:927
0.012,-0.194,-9.879,0,0,0,12664,2021-01-15 19:00:46:946
0.012,-0.194,-9.879,0,0,0,12665,2021-01-15 19:00:46:947
0.024,-0.184,-9.862,0,0,0,12675,2021-01-15 19:00:46:957
0.024,-0.184,-9.862,0,0,0,12686,2021-01-15 19:00:46:968
0.024,-0.184,-9.862,0,0,0,12696,2021-01-15 19:00:46:978
0.024,-0.184,-9.862,0,0,0,12705,2021-01-15 19:00:46:987
0.024,-0.184,-9.862,0,0,0,12715,2021-01-15 19:00:46:997
0.024,-0.184,-9.862,0,0,0,12725,2021-01-15 19:00:47:007
0.024,-0.196,-9.862,0,0,0,12736,2021-01-15 19:00:47:018
0.024,-0.196,-9.862,0,0,0,12746,2021-01-15 19:00:47:028
0.024,-0.196,-9.862,0,0,0,12755,2021-01-15 19:00:47:037
0.024,-0.196,-9.862,0,0,0,12765,2021-01-15 19:00:47:047
0.024,-0.196,-9.862,0,0,0,12775,2021-01-15 19:00:47:057
0.024,-0.196,-9.862,0,0,0,12785,2021-01-15 19:00:47:067
0.026,-0.192,-9.862,0,0,0,12795,2021-01-15 19:00:47:077
0.026,-0.192,-9.862,0,0,0,12806,2021-01-15 19:00:47:088
0.026,-0.192,-9.862,0,0,0,12815,2021-01-15 19:00:47:097
0.026,-0.192,-9.862,0,0,0,12826,2021-01-15 19:00:47:108
0.026,-0.192,-9.862,0,0,0,12835,2021-01-15 19:00:47:117
0.026,-0.192,-9.862,0,0,0,12845,2021-01-15 19:00:47:127
0.007,-0.184,-9.855,0,0,0,12855,2021-01-15 19:00:47:137
0.007,-0.184,-9.855,0,0,0,12872,2021-01-15 19:00:47:154
0.007,-0.184,-9.855,0,0,0,12875,2021-01-15 19:00:47:157
0.007,-0.184,-9.855,0,0,0,12888,2021-01-15 19:00:47:170
0.007,-0.184,-9.855,0,0,0,12895,2021-01-15 19:00:47:177
0.007,-0.184,-9.855,0,0,0,12906,2021-01-15 19:00:47:188
0.012,-0.182,-9.86,0,0,0,12916,2021-01-15 19:00:47:198
0.012,-0.182,-9.86,0,0,0,12925,2021-01-15 19:00:47:207
0.012,-0.182,-9.86,0,0,0,12935,2021-01-15 19:00:47:217
0.012,-0.182,-9.86,0,0,0,12945,2021-01-15 19:00:47:227
0.012,-0.182,-9.86,0,0,0,12956,2021-01-15 19:00:47:238
0.012,-0.182,-9.86,0,0,0,12966,2021-01-15 19:00:47:248
0.029,-0.172,-9.876,0,0,0,12977,2021-01-15 19:00:47:259
0.029,-0.172,-9.876,0,0,0,12986,2021-01-15 19:00:47:268
0.029,-0.172,-9.876,0,0,0,12995,2021-01-15 19:00:47:277
0.029,-0.172,-9.876,0,0,0,13005,2021-01-15 19:00:47:287
0.029,-0.172,-9.876,0,0,0,13015,2021-01-15 19:00:47:297
0.029,-0.172,-9.876,0,0,0,13029,2021-01-15 19:00:47:311
0.034,-0.187,-9.862,0,0,0,13036,2021-01-15 19:00:47:318
0.034,-0.187,-9.862,0,0,0,13045,2021-01-15 19:00:47:327
0.034,-0.187,-9.862,0,0,0,13057,2021-01-15 19:00:47:339
0.034,-0.187,-9.862,0,0,0,13066,2021-01-15 19:00:47:348
0.034,-0.187,-9.862,0,0,0,13080,2021-01-15 19:00:47:362
0.034,-0.187,-9.864,0,0,0,13085,2021-01-15 19:00:47:367
0.026,-0.187,-9.864,0,0,0,13095,2021-01-15 19:00:47:377
0.026,-0.187,-9.864,0,0,0,13105,2021-01-15 19:00:47:387
0.026,-0.187,-9.864,0,0,0,13115,2021-01-15 19:00:47:397
0.026,-0.187,-9.864,0,0,0,13125,2021-01-15 19:00:47:407
0.026,-0.187,-9.864,0,0,0,13138,2021-01-15 19:00:47:420
0.026,-0.187,-9.864,0,0,0,13145,2021-01-15 19:00:47:427
0.026,-0.194,-9.869,0,0,0,13155,2021-01-15 19:00:47:437
0.026,-0.194,-9.869,0,0,0,13165,2021-01-15 19:00:47:447
0.026,-0.194,-9.869,0,0,0,13177,2021-01-15 19:00:47:459
0.026,-0.194,-9.869,0,0,0,13186,2021-01-15 19:00:47:468
0.026,-0.194,-9.869,0,0,0,13200,2021-01-15 19:00:47:482
0.026,-0.194,-9.869,0,0,0,13205,2021-01-15 19:00:47:487
0,-0.177,-9.852,0,0,0,13218,2021-01-15 19:00:47:500
0,-0.177,-9.852,0,0,0,13225,2021-01-15 19:00:47:507
0,-0.177,-9.852,0,0,0,13238,2021-01-15 19:00:47:520
0,-0.177,-9.852,0,0,0,13245,2021-01-15 19:00:47:527
0,-0.177,-9.852,0,0,0,13255,2021-01-15 19:00:47:537
0,-0.177,-9.852,0,0,0,13265,2021-01-15 19:00:47:547
0.036,-0.201,-9.879,0,0,0,13275,2021-01-15 19:00:47:557
0.036,-0.201,-9.879,0,0,0,13286,2021-01-15 19:00:47:568
0.036,-0.201,-9.879,0,0,0,13295,2021-01-15 19:00:47:577
0.036,-0.201,-9.879,0,0,0,13305,2021-01-15 19:00:47:587
0.036,-0.201,-9.879,0,0,0,13315,2021-01-15 19:00:47:597
0.036,-0.201,-9.879,0,0,0,13332,2021-01-15 19:00:47:614
0.029,-0.182,-9.86,0,0,0,13340,2021-01-15 19:00:47:622
0.029,-0.182,-9.86,0,0,0,13345,2021-01-15 19:00:47:627
0.029,-0.182,-9.86,0,0,0,13356,2021-01-15 19:00:47:638
0.029,-0.182,-9.86,0,0,0,13365,2021-01-15 19:00:47:647
0.029,-0.182,-9.86,0,0,0,13375,2021-01-15 19:00:47:657
0.029,-0.182,-9.86,0,0,0,13385,2021-01-15 19:00:47:667
0.01,-0.168,-9.891,0,0,0,13395,2021-01-15 19:00:47:677
0.01,-0.168,-9.891,0,0,0,13407,2021-01-15 19:00:47:689
0.01,-0.168,-9.891,0,0,0,13415,2021-01-15 19:00:47:697
0.01,-0.168,-9.891,0,0,0,13425,2021-01-15 19:00:47:707
0.01,-0.168,-9.891,0,0,0,13437,2021-01-15 19:00:47:719
0.01,-0.168,-9.891,0,0,0,13445,2021-01-15 19:00:47:727
0.022,-0.172,-9.879,0,0,0,13456,2021-01-15 19:00:47:738
0.022,-0.172,-9.879,0,0,0,13466,2021-01-15 19:00:47:748
0.022,-0.172,-9.879,0,0,0,13477,2021-01-15 19:00:47:759
0.022,-0.172,-9.879,0,0,0,13485,2021-01-15 19:00:47:767
0.022,-0.172,-9.879,0,0,0,13495,2021-01-15 19:00:47:777
0.022,-0.172,-9.879,0,0,0,13505,2021-01-15 19:00:47:787
0.005,-0.184,-9.876,0,0,0,13515,2021-01-15 19:00:47:797
0.005,-0.184,-9.876,0,0,0,13525,2021-01-15 19:00:47:807
0.005,-0.184,-9.876,0,0,0,13535,2021-01-15 19:00:47:817
0.005,-0.184,-9.876,0,0,0,13545,2021-01-15 19:00:47:827
0.005,-0.184,-9.876,0,0,0,13560,2021-01-15 19:00:47:842
0.005,-0.184,-9.876,0,0,0,13566,2021-01-15 19:00:47:848
0.022,-0.204,-9.864,0,0,0,13575,2021-01-15 19:00:47:857
0.022,-0.204,-9.864,0,0,0,13585,2021-01-15 19:00:47:867
0.022,-0.204,-9.864,0,0,0,13596,2021-01-15 19:00:47:878
0.022,-0.204,-9.864,0,0,0,13605,2021-01-15 19:00:47:887
0.022,-0.204,-9.864,0,0,0,13615,2021-01-15 19:00:47:897
0.022,-0.204,-9.864,0,0,0,13627,2021-01-15 19:00:47:909
0.036,-0.196,-9.864,0,0,0,13637,2021-01-15 19:00:47:919
0.036,-0.196,-9.864,0,0,0,13645,2021-01-15 19:00:47:927
0.036,-0.196,-9.864,0,0,0,13655,2021-01-15 19:00:47:937
0.036,-0.196,-9.864,0,0,0,13665,2021-01-15 19:00:47:947
0.036,-0.196,-9.864,0,0,0,13676,2021-01-15 19:00:47:958
0.036,-0.196,-9.864,0,0,0,13685,2021-01-15 19:00:47:967
0.005,-0.189,-9.876,0,0,0,13695,2021-01-15 19:00:47:977
0.005,-0.189,-9.876,0,0,0,13706,2021-01-15 19:00:47:988
0.005,-0.189,-9.876,0,0,0,13715,2021-01-15 19:00:47:997
0.005,-0.189,-9.876,0,0,0,13725,2021-01-15 19:00:48:007
0.005,-0.189,-9.876,0,0,0,13736,2021-01-15 19:00:48:018
0.005,-0.189,-9.876,0,0,0,13745,2021-01-15 19:00:48:027
0.012,-0.196,-9.881,0,0,0,13755,2021-01-15 19:00:48:037
0.012,-0.196,-9.881,0,0,0,13772,2021-01-15 19:00:48:054
0.012,-0.196,-9.881,0,0,0,13775,2021-01-15 19:00:48:057
0.012,-0.196,-9.881,0,0,0,13790,2021-01-15 19:00:48:072
0.012,-0.196,-9.881,0,0,0,13795,2021-01-15 19:00:48:077
0.012,-0.196,-9.881,0,0,0,13806,2021-01-15 19:00:48:088
0.022,-0.177,-9.884,0,0,0,13816,2021-01-15 19:00:48:098
0.022,-0.177,-9.884,0,0,0,13826,2021-01-15 19:00:48:108
0.022,-0.177,-9.884,0,0,0,13839,2021-01-15 19:00:48:121
0.022,-0.177,-9.884,0,0,0,13845,2021-01-15 19:00:48:127
0.022,-0.177,-9.884,0,0,0,13855,2021-01-15 19:00:48:137
0.022,-0.177,-9.884,0,0,0,13865,2021-01-15 19:00:48:147
0.014,-0.175,-9.872,0,0,0,13876,2021-01-15 19:00:48:158
0.014,-0.175,-9.872,0,0,0,13886,2021-01-15 19:00:48:168
0.014,-0.175,-9.872,0,0,0,13895,2021-01-15 19:00:48:177
0.014,-0.175,-9.872,0,0,0,13906,2021-01-15 19:00:48:188
0.014,-0.175,-9.872,0,0,0,13916,2021-01-15 19:00:48:198
0.014,-0.175,-9.872,0,0,0,13926,2021-01-15 19:00:48:208
-0.007,-0.18,-9.862,0,0,0,13935,2021-01-15 19:00:48:217
-0.007,-0.18,-9.862,0,0,0,13945,2021-01-15 19:00:48:227
-0.007,-0.18,-9.862,0,0,0,13955,2021-01-15 19:00:48:237
-0.007,-0.18,-9.862,0,0,0,13965,2021-01-15 19:00:48:247
-0.007,-0.18,-9.862,0,0,0,13975,2021-01-15 19:00:48:257
-0.007,-0.18,-9.862,0,0,0,13985,2021-01-15 19:00:48:267
0.012,-0.182,-9.886,0,0,0,13996,2021-01-15 19:00:48:278
0.012,-0.182,-9.886,0,0,0,14006,2021-01-15 19:00:48:288
0.012,-0.182,-9.886,0,0,0,14015,2021-01-15 19:00:48:297
0.012,-0.182,-9.886,0,0,0,14025,2021-01-15 19:00:48:307
0.012,-0.182,-9.886,0,0,0,14035,2021-01-15 19:00:48:317
0.012,-0.182,-9.886,0,0.001,0,14046,2021-01-15 19:00:48:328
0.007,-0.196,-9.855,0,0.001,0,14055,2021-01-15 19:00:48:337
0.007,-0.196,-9.855,0,0.001,0,14066,2021-01-15 19:00:48:348
0.007,-0.196,-9.855,0,0.001,0,14075,2021-01-15 19:00:48:357
0.007,-0.196,-9.855,0,0.001,0,14087,2021-01-15 19:00:48:369
0.007,-0.196,-9.855,0,0.001,0,14095,2021-01-15 19:00:48:377
0.007,-0.196,-9.855,0,0.001,0,14105,2021-01-15 19:00:48:387
0.012,-0.177,-9.857,0,0.001,0,14116,2021-01-15 19:00:48:398
0.012,-0.177,-9.857,0,0.001,0,14125,2021-01-15 19:00:48:407
0.012,-0.177,-9.857,0,0.001,0,14135,2021-01-15 19:00:48:417
0.012,-0.177,-9.857,0,0.001,0,14146,2021-01-15 19:00:48:428
0.012,-0.177,-9.857,0,0,0,14155,2021-01-15 19:00:48:437
0.012,-0.177,-9.857,0,0,0,14165,2021-01-15 19:00:48:447
0.024,-0.194,-9.867,0,0,0,14176,2021-01-15 19:00:48:458
0.024,-0.194,-9.867,0,0,0,14185,2021-01-15 19:00:48:467
0.024,-0.194,-9.867,0,0,0,14196,2021-01-15 19:00:48:478
0.024,-0.194,-9.867,0,0,0,14209,2021-01-15 19:00:48:491
0.024,-0.194,-9.867,0,0,0,14215,2021-01-15 19:00:48:497
0.024,-0.194,-9.867,0,0,0,14226,2021-01-15 19:00:48:508
0.022,-0.182,-9.852,0,0,0,14236,2021-01-15 19:00:48:518
0.022,-0.182,-9.852,0,0,0,14245,2021-01-15 19:00:48:527
0.022,-0.182,-9.852,0,0,0,14260,2021-01-15 19:00:48:542
0.022,-0.182,-9.852,0,0,0,14265,2021-01-15 19:00:48:547
0.022,-0.182,-9.852,0,0,0,14275,2021-01-15 19:00:48:557
0.022,-0.182,-9.852,0,0,0,14285,2021-01-15 19:00:48:567
0.024,-0.201,-9.864,0,0,0,14295,2021-01-15 19:00:48:577
0.024,-0.201,-9.864,0,0,0,14308,2021-01-15 19:00:48:590
0.024,-0.201,-9.864,0,0,0,14315,2021-01-15 19:00:48:597
0.024,-0.201,-9.864,0,0,0,14325,2021-01-15 19:00:48:607
0.024,-0.201,-9.864,0,0,0,14342,2021-01-15 19:00:48:624
0.024,-0.201,-9.864,0,0,0,14345,2021-01-15 19:00:48:627
0.022,-0.18,-9.867,0,0,0,14355,2021-01-15 19:00:48:637
0.022,-0.18,-9.867,0,0,0,14365,2021-01-15 19:00:48:647
0.022,-0.18,-9.867,0,0,0,14375,2021-01-15 19:00:48:657
0.022,-0.18,-9.867,0,0,0,14388,2021-01-15 19:00:48:670
0.022,-0.18,-9.867,0,0,-0.001,14395,2021-01-15 19:00:48:677
0.022,-0.18,-9.867,0,0,-0.001,14405,2021-01-15 19:00:48:687
0.01,-0.184,-9.864,0,0,-0.001,14415,2021-01-15 19:00:48:697
0.01,-0.184,-9.864,0,0,-0.001,14426,2021-01-15 19:00:48:708
0.01,-0.184,-9.864,0,0,-0.001,14441,2021-01-15 19:00:48:723
0.01,-0.184,-9.864,0,0,-0.001,14445,2021-01-15 19:00:48:727
0.01,-0.184,-9.864,0,0,-0.001,14458,2021-01-15 19:00:48:740
0.01,-0.184,-9.864,0,0,-0.001,14465,2021-01-15 19:00:48:747
0.012,-0.187,-9.872,0,0,-0.001,14475,2021-01-15 19:00:48:757
0.012,-0.187,-9.872,0,0,-0.001,14485,2021-01-15 19:00:48:767
0.012,-0.187,-9.872,0,0,-0.001,14496,2021-01-15 19:00:48:778
0.012,-0.187,-9.872,0,0,-0.001,14509,2021-01-15 19:00:48:791
0.012,-0.187,-9.872,0,0,-0.001,14515,2021-01-15 19:00:48:797
0.012,-0.187,-9.872,0,0,0,14526,2021-01-15 19:00:48:808
0.026,-0.177,-9.845,0,0,0,14543,2021-01-15 19:00:48:825
0.026,-0.177,-9.845,0,0,0,14545,2021-01-15 19:00:48:827
0.026,-0.177,-9.845,0,0,0,14559,2021-01-15 19:00:48:841
0.026,-0.177,-9.845,0,0,0,14565,2021-01-15 19:00:48:847
0.026,-0.177,-9.845,0,0,0,14575,2021-01-15 19:00:48:857
0.026,-0.177,-9.845,0,0,0,14585,2021-01-15 19:00:48:867
0.014,-0.182,-9.862,0,0,0,14596,2021-01-15 19:00:48:878
0.014,-0.182,-9.862,0,0,0,14605,2021-01-15 19:00:48:887
0.014,-0.182,-9.862,0,0,0,14615,2021-01-15 19:00:48:897
0.014,-0.182,-9.862,0,0,0,14626,2021-01-15 19:00:48:908
0.014,-0.182,-9.862,0,0,0,14635,2021-01-15 19:00:48:917
0.014,-0.182,-9.862,0,0,0,14645,2021-01-15 19:00:48:927
0.007,-0.177,-9.862,0,0,0,14655,2021-01-15 19:00:48:937
0.007,-0.177,-9.862,0,0,0,14666,2021-01-15 19:00:48:948
0.007,-0.177,-9.862,0,0,0,14675,2021-01-15 19:00:48:957
0.007,-0.177,-9.862,0,0,0,14690,2021-01-15 19:00:48:972
0.007,-0.177,-9.862,0,0,0,14697,2021-01-15 19:00:48:979
0.007,-0.177,-9.862,0,0,0,14705,2021-01-15 19:00:48:987
0.017,-0.172,-9.888,0,0,0,14715,2021-01-15 19:00:48:997
0.017,-0.172,-9.888,0,0,0,14725,2021-01-15 19:00:49:007
0.017,-0.172,-9.888,0,0,0,14735,2021-01-15 19:00:49:017
0.017,-0.172,-9.888,0,0,0,14747,2021-01-15 19:00:49:029
0.017,-0.172,-9.888,0,0,0,14755,2021-01-15 19:00:49:037
0.017,-0.172,-9.888,0,0,0,14766,2021-01-15 19:00:49:048
0.019,-0.189,-9.869,0,0,0,14775,2021-01-15 19:00:49:057
0.019,-0.189,-9.869,0,0,0,14785,2021-01-15 19:00:49:067
0.019,-0.189,-9.869,0,0,0,14795,2021-01-15 19:00:49:077
0.019,-0.189,-9.869,0,0,0,14807,2021-01-15 19:00:49:089
0.019,-0.189,-9.869,0,0,0,14815,2021-01-15 19:00:49:097
0.019,-0.189,-9.869,0,0,0,14825,2021-01-15 19:00:49:107
0.034,-0.182,-9.869,0,0,0,14835,2021-01-15 19:00:49:117
0.034,-0.182,-9.869,0,0,0,14845,2021-01-15 19:00:49:127
0.034,-0.182,-9.869,0,0,0,14855,2021-01-15 19:00:49:137
0.034,-0.182,-9.869,0,0,0,14865,2021-01-15 19:00:49:147
0.034,-0.182,-9.869,0,0,0,14875,2021-01-15 19:00:49:157
0.034,-0.182,-9.869,0,0,0,14885,2021-01-15 19:00:49:167
0.036,-0.204,-9.874,0,0,0,14895,2021-01-15 19:00:49:177
0.036,-0.204,-9.874,0,0,0,14905,2021-01-15 19:00:49:187
0.036,-0.204,-9.874,0,0,0,14915,2021-01-15 19:00:49:197
0.036,-0.204,-9.874,0,0,0,14925,2021-01-15 19:00:49:207
0.036,-0.204,-9.874,0,0,0,14935,2021-01-15 19:00:49:217
0.036,-0.204,-9.874,0,0,0,14945,2021-01-15 19:00:49:227
0.019,-0.189,-9.864,0,0,0,14955,2021-01-15 19:00:49:237
0.019,-0.189,-9.864,0,0,0,14965,2021-01-15 19:00:49:247
0.019,-0.189,-9.864,0,0,0,14975,2021-01-15 19:00:49:257
0.019,-0.189,-9.864,0,0,0,14985,2021-01-15 19:00:49:267
0.019,-0.189,-9.864,0,0,0,14996,2021-01-15 19:00:49:278
0.019,-0.189,-9.864,0,0,0,15005,2021-01-15 19:00:49:287
0.019,-0.184,-9.864,0,0,0,15016,2021-01-15 19:00:49:298
0.019,-0.184,-9.864,0,0,0,15025,2021-01-15 19:00:49:307
0.019,-0.184,-9.864,0,0,0,15035,2021-01-15 19:00:49:317
0.019,-0.184,-9.864,0,0,0,15045,2021-01-15 19:00:49:327
0.019,-0.184,-9.864,0,0,0,15055,2021-01-15 19:00:49:337
0.019,-0.184,-9.864,0,0,0,15065,2021-01-15 19:00:49:347
0.017,-0.184,-9.86,0,0,0,15075,2021-01-15 19:00:49:357
0.017,-0.184,-9.86,0,0,0,15085,2021-01-15 19:00:49:367
0.017,-0.184,-9.86,0,0,0,15095,2021-01-15 19:00:49:377
0.017,-0.184,-9.86,0,0,0,15106,2021-01-15 19:00:49:388
0.017,-0.184,-9.86,0,0,0,15115,2021-01-15 19:00:49:397
0.017,-0.184,-9.86,0,0,0,15125,2021-01-15 19:00:49:407
0.014,-0.182,-9.852,0,0,0,15135,2021-01-15 19:00:49:417
0.014,-0.182,-9.852,0,0,0,15145,2021-01-15 19:00:49:427
0.014,-0.182,-9.852,0,0,0,15155,2021-01-15 19:00:49:437
0.014,-0.182,-9.852,0,0,0,15165,2021-01-15 19:00:49:447
0.014,-0.182,-9.852,0,0,0,15183,2021-01-15 19:00:49:465
0.014,-0.182,-9.852,0,0,0,15185,2021-01-15 19:00:49:467
0.019,-0.187,-9.869,0,0,0,15195,2021-01-15 19:00:49:477
0.019,-0.187,-9.869,0,0,0,15205,2021-01-15 19:00:49:487
0.019,-0.187,-9.869,0,0,0,15215,2021-01-15 19:00:49:497
0.019,-0.187,-9.869,0,0,0,15226,2021-01-15 19:00:49:508
0.019,-0.187,-9.869,0,0,0,15237,2021-01-15 19:00:49:519
0.019,-0.187,-9.869,0,0,0,15245,2021-01-15 19:00:49:527
0.029,-0.194,-9.869,0,0,0,15255,2021-01-15 19:00:49:537
0.029,-0.194,-9.869,0,0,0,15265,2021-01-15 19:00:49:547
0.029,-0.194,-9.869,0,0,0,15276,2021-01-15 19:00:49:558
0.029,-0.194,-9.869,0,0,0,15285,2021-01-15 19:00:49:567
0.029,-0.194,-9.869,0,0,0,15295,2021-01-15 19:00:49:577
0.029,-0.194,-9.869,0,0,0,15307,2021-01-15 19:00:49:589
0.034,-0.189,-9.872,0,0,0,15315,2021-01-15 19:00:49:597
0.034,-0.189,-9.872,0,0,0,15325,2021-01-15 19:00:49:607
0.034,-0.189,-9.872,0,0,0,15337,2021-01-15 19:00:49:619
0.034,-0.189,-9.872,0,0,0,15347,2021-01-15 19:00:49:629
0.034,-0.189,-9.872,0,0,0,15356,2021-01-15 19:00:49:638
0.034,-0.189,-9.872,0,0,0,15365,2021-01-15 19:00:49:647
0.029,-0.177,-9.855,0,0,0,15375,2021-01-15 19:00:49:657
0.029,-0.177,-9.855,0,0,0,15385,2021-01-15 19:00:49:667
0.029,-0.177,-9.855,0,0,0,15395,2021-01-15 19:00:49:677
0.029,-0.177,-9.855,0,0,0,15405,2021-01-15 19:00:49:687
0.029,-0.177,-9.855,0,0,0,15416,2021-01-15 19:00:49:698
0.029,-0.177,-9.855,0,0,0,15425,2021-01-15 19:00:49:707
0.022,-0.187,-9.852,0,0,0,15435,2021-01-15 19:00:49:717
0.022,-0.187,-9.852,0,0,0,15445,2021-01-15 19:00:49:727
0.022,-0.187,-9.852,0,0,0,15456,2021-01-15 19:00:49:738
0.022,-0.187,-9.852,0,0,0,15465,2021-01-15 19:00:49:747
0.022,-0.187,-9.852,0,0,0,15475,2021-01-15 19:00:49:757
0.022,-0.187,-9.852,0,0,0,15485,2021-01-15 19:00:49:767
0.014,-0.184,-9.845,0,0,0,15495,2021-01-15 19:00:49:777
0.014,-0.184,-9.845,0,0,0,15505,2021-01-15 19:00:49:787
0.014,-0.184,-9.845,0,0,0,15515,2021-01-15 19:00:49:797
0.014,-0.184,-9.845,0,0,0,15525,2021-01-15 19:00:49:807
0.014,-0.184,-9.845,0,0,0,15535,2021-01-15 19:00:49:817
0.014,-0.184,-9.845,0,0,0,15545,2021-01-15 19:00:49:827
0.026,-0.208,-9.86,0,0,0,15555,2021-01-15 19:00:49:837
0.026,-0.208,-9.86,0,0,0,15565,2021-01-15 19:00:49:847
0.026,-0.208,-9.86,0,0,0,15575,2021-01-15 19:00:49:857
0.026,-0.208,-9.86,0,0,0,15585,2021-01-15 19:00:49:867
0.026,-0.208,-9.86,0,0,0,15597,2021-01-15 19:00:49:879
0.026,-0.208,-9.86,0,0,0,15606,2021-01-15 19:00:49:888
0.029,-0.182,-9.891,0,0,0,15615,2021-01-15 19:00:49:897
0.029,-0.182,-9.891,0,0,0,15627,2021-01-15 19:00:49:909
0.029,-0.182,-9.891,0,0,0,15636,2021-01-15 19:00:49:918
0.029,-0.182,-9.891,0,0,0,15645,2021-01-15 19:00:49:927
0.029,-0.182,-9.891,0,0,0,15655,2021-01-15 19:00:49:937
0.029,-0.182,-9.891,0,0,0,15665,2021-01-15 19:00:49:947
0.031,-0.189,-9.848,0,0,0,15675,2021-01-15 19:00:49:957
0.031,-0.189,-9.848,0,0,0,15685,2021-01-15 19:00:49:967
0.031,-0.189,-9.848,0,0,0,15702,2021-01-15 19:00:49:984
0.031,-0.189,-9.848,0,0,0,15705,2021-01-15 19:00:49:987
0.031,-0.189,-9.848,0,-0.001,0,15715,2021-01-15 19:00:49:997
0.031,-0.189,-9.848,0,-0.001,0,15726,2021-01-15 19:00:50:008
0.002,-0.182,-9.872,0,-0.001,0,15736,2021-01-15 19:00:50:018
0.002,-0.182,-9.872,0,-0.001,0,15745,2021-01-15 19:00:50:027
0.002,-0.182,-9.872,0,-0.001,0,15755,2021-01-15 19:00:50:037
0.002,-0.182,-9.872,0,-0.001,0,15765,2021-01-15 19:00:50:047
0.002,-0.182,-9.872,0,-0.001,0,15775,2021-01-15 19:00:50:057
0.002,-0.182,-9.872,0,-0.001,0,15785,2021-01-15 19:00:50:067
0.014,-0.189,-9.867,0,-0.001,0,15795,2021-01-15 19:00:50:077
0.014,-0.189,-9.867,0,-0.001,0,15805,2021-01-15 19:00:50:087
0.014,-0.189,-9.867,0,-0.001,0,15816,2021-01-15 19:00:50:098
0.014,-0.189,-9.867,0,-0.001,0,15825,2021-01-15 19:00:50:107
0.014,-0.189,-9.867,0,0,0,15837,2021-01-15 19:00:50:119
0.014,-0.189,-9.867,0,0,0,15845,2021-01-15 19:00:50:127
0.036,-0.199,-9.86,0,0,0,15857,2021-01-15 19:00:50:139
0.036,-0.199,-9.86,0,0,0,15865,2021-01-15 19:00:50:147
0.036,-0.199,-9.86,0,0,0,15875,2021-01-15 19:00:50:157
0.036,-0.199,-9.86,0,0,0,15885,2021-01-15 19:00:50:167
0.036,-0.199,-9.86,0,0,0,15895,2021-01-15 19:00:50:177
0.036,-0.199,-9.86,0,0,0,15905,2021-01-15 19:00:50:187
0.024,-0.184,-9.86,0,0,0,15915,2021-01-15 19:00:50:197
0.024,-0.184,-9.86,0,0,0,15925,2021-01-15 19:00:50:207
0.024,-0.184,-9.86,0,0,0,15935,2021-01-15 19:00:50:217
0.024,-0.184,-9.86,0,0,0,15946,2021-01-15 19:00:50:228
0.024,-0.184,-9.86,0,0,0,15956,2021-01-15 19:00:50:238
0.024,-0.184,-9.86,0,0,0,15965,2021-01-15 19:00:50:247
0.022,-0.175,-9.879,0,0,0,15978,2021-01-15 19:00:50:260
0.022,-0.175,-9.879,0,0,0,15986,2021-01-15 19:00:50:268
0.022,-0.175,-9.879,0,0,0,15996,2021-01-15 19:00:50:278
0.022,-0.175,-9.879,0,0,0,16006,2021-01-15 19:00:50:288
0.022,-0.175,-9.879,0,0,0,16016,2021-01-15 19:00:50:298
0.022,-0.175,-9.879,0,0,0,16025,2021-01-15 19:00:50:307
0.022,-0.18,-9.876,0,0,0,16035,2021-01-15 19:00:50:317
0.022,-0.18,-9.876,0,0,0,16045,2021-01-15 19:00:50:327
0.022,-0.18,-9.876,0,0,0,16055,2021-01-15 19:00:50:337
0.022,-0.18,-9.876,0,0,0,16066,2021-01-15 19:00:50:348
0.022,-0.18,-9.876,0,0,0,16076,2021-01-15 19:00:50:358
0.022,-0.18,-9.876,0,0,0,16085,2021-01-15 19:00:50:367
0.041,-0.18,-9.879,0,0,0,16097,2021-01-15 19:00:50:379
0.041,-0.18,-9.879,0,0,0,16105,2021-01-15 19:00:50:387
0.041,-0.18,-9.879,0,0,0,16115,2021-01-15 19:00:50:397
0.041,-0.18,-9.879,0,0,0,16126,2021-01-15 19:00:50:408
0.041,-0.18,-9.879,0,0,0,16135,2021-01-15 19:00:50:417
0.041,-0.18,-9.879,0,0,0,16146,2021-01-15 19:00:50:428
0.007,-0.182,-9.869,0,0,0,16157,2021-01-15 19:00:50:439
0.007,-0.182,-9.869,0,0,0,16165,2021-01-15 19:00:50:447
0.007,-0.182,-9.869,0,0,0,16176,2021-01-15 19:00:50:458
0.007,-0.182,-9.869,0,0,0,16185,2021-01-15 19:00:50:467
0.007,-0.182,-9.869,0,0,0,16195,2021-01-15 19:00:50:477
0.007,-0.182,-9.869,0,0,0,16205,2021-01-15 19:00:50:487
0.034,-0.206,-9.864,0,0,0,16216,2021-01-15 19:00:50:498
0.034,-0.206,-9.864,0,0,0,16225,2021-01-15 19:00:50:507
0.034,-0.206,-9.864,0,0,0,16237,2021-01-15 19:00:50:519
0.034,-0.206,-9.864,0,0,0,16252,2021-01-15 19:00:50:534
0.034,-0.206,-9.864,0,0,0,16256,2021-01-15 19:00:50:538
0.034,-0.206,-9.864,0,0,0,16265,2021-01-15 19:00:50:547
0.031,-0.189,-9.862,0,0,0,16275,2021-01-15 19:00:50:557
0.031,-0.189,-9.862,0,0,0,16285,2021-01-15 19:00:50:567
0.031,-0.189,-9.862,0,0,0,16296,2021-01-15 19:00:50:578
0.031,-0.189,-9.862,0,0,0,16305,2021-01-15 19:00:50:587
0.031,-0.189,-9.862,0,0,0,16316,2021-01-15 19:00:50:598
0.031,-0.189,-9.862,0,0,0,16325,2021-01-15 19:00:50:607
0.007,-0.199,-9.869,0,0,0,16336,2021-01-15 19:00:50:618
0.007,-0.199,-9.869,0,0,0,16345,2021-01-15 19:00:50:627
0.007,-0.199,-9.869,0,0,0,16355,2021-01-15 19:00:50:637
0.007,-0.199,-9.869,0,0,0,16365,2021-01-15 19:00:50:647
0.007,-0.199,-9.869,0,0,0,16375,2021-01-15 19:00:50:657
0.007,-0.199,-9.869,0,0,0,16387,2021-01-15 19:00:50:669
0.022,-0.184,-9.884,0,0,0,16395,2021-01-15 19:00:50:677
0.022,-0.184,-9.884,0,0,0,16405,2021-01-15 19:00:50:687
0.022,-0.184,-9.884,0,0,0,16416,2021-01-15 19:00:50:698
0.022,-0.184,-9.884,0,0,0,16425,2021-01-15 19:00:50:707
0.022,-0.184,-9.884,0,0,0,16435,2021-01-15 19:00:50:717
0.022,-0.184,-9.884,0,0,0,16446,2021-01-15 19:00:50:728
0.029,-0.187,-9.857,0,0,0,16456,2021-01-15 19:00:50:738
0.029,-0.187,-9.857,0,0,0,16465,2021-01-15 19:00:50:747
0.029,-0.187,-9.857,0,0,0,16475,2021-01-15 19:00:50:757
0.029,-0.187,-9.857,0,0,0,16485,2021-01-15 19:00:50:767
0.029,-0.187,-9.857,0,0,0,16496,2021-01-15 19:00:50:778
0.029,-0.187,-9.857,0,0,0,16505,2021-01-15 19:00:50:787
0.029,-0.189,-9.876,0,0,0,16515,2021-01-15 19:00:50:797
0.029,-0.189,-9.876,0,0,0,16525,2021-01-15 19:00:50:807
0.029,-0.189,-9.876,0,0,0,16535,2021-01-15 19:00:50:817
0.029,-0.189,-9.876,0,0,0,16547,2021-01-15 19:00:50:829
0.029,-0.189,-9.876,0,0,0,16564,2021-01-15 19:00:50:846
0.029,-0.189,-9.876,0,0,0,16565,2021-01-15 19:00:50:847
0.014,-0.192,-9.84,0,0,0,16575,2021-01-15 19:00:50:857
0.014,-0.192,-9.84,0,0,0,16586,2021-01-15 19:00:50:868
0.014,-0.192,-9.84,0,0,0,16596,2021-01-15 19:00:50:878
0.014,-0.192,-9.84,0,0,0,16605,2021-01-15 19:00:50:887
0.014,-0.192,-9.84,0,0,0,16615,2021-01-15 19:00:50:897
0.014,-0.192,-9.84,0,0,0,16625,2021-01-15 19:00:50:907
0.017,-0.184,-9.869,0,0,0,16635,2021-01-15 19:00:50:917
0.017,-0.184,-9.869,0,0,0,16645,2021-01-15 19:00:50:927
0.017,-0.184,-9.869,0,0,0,16656,2021-01-15 19:00:50:938
0.017,-0.184,-9.869,0,0,0,16665,2021-01-15 19:00:50:947
0.017,-0.184,-9.869,0,0,0,16675,2021-01-15 19:00:50:957
0.017,-0.184,-9.869,0,0,0,16685,2021-01-15 19:00:50:967
0.014,-0.182,-9.874,0,0,0,16695,2021-01-15 19:00:50:977
0.014,-0.182,-9.874,0,0,0,16718,2021-01-15 19:00:51:000
0.014,-0.182,-9.874,0,0,0,16719,2021-01-15 19:00:51:001
0.014,-0.182,-9.874,0,0,0,16725,2021-01-15 19:00:51:007
0.014,-0.182,-9.874,0,0,0,16737,2021-01-15 19:00:51:019
0.014,-0.182,-9.874,0,0,0,16745,2021-01-15 19:00:51:027
0.01,-0.189,-9.857,0,0,0,16756,2021-01-15 19:00:51:038
0.01,-0.189,-9.857,0,0,0,16768,2021-01-15 19:00:51:050
0.01,-0.189,-9.857,0,0,0,16775,2021-01-15 19:00:51:057
0.01,-0.189,-9.857,0,0,0,16785,2021-01-15 19:00:51:067
0.01,-0.189,-9.857,0,0,0,16795,2021-01-15 19:00:51:077
0.01,-0.189,-9.857,0,0,0,16805,2021-01-15 19:00:51:087
0.026,-0.189,-9.872,0,0,0,16815,2021-01-15 19:00:51:097
0.026,-0.189,-9.872,0,0,0,16826,2021-01-15 19:00:51:108
0.026,-0.189,-9.872,0,0,0,16835,2021-01-15 19:00:51:117
0.026,-0.189,-9.872,0,0,0,16847,2021-01-15 19:00:51:129
0.026,-0.189,-9.872,0,0,0,16856,2021-01-15 19:00:51:138
0.026,-0.189,-9.872,0,0,0,16866,2021-01-15 19:00:51:148
0.024,-0.204,-9.862,0,0,0,16875,2021-01-15 19:00:51:157
0.024,-0.204,-9.862,0,0,0,16885,2021-01-15 19:00:51:167
0.024,-0.204,-9.862,0,0,0,16898,2021-01-15 19:00:51:180
0.024,-0.204,-9.862,0,0,0,16905,2021-01-15 19:00:51:187
0.024,-0.204,-9.862,0,0,0,16915,2021-01-15 19:00:51:197
0.024,-0.204,-9.862,0,0,0,16925,2021-01-15 19:00:51:207
0.031,-0.189,-9.884,0,0,0,16937,2021-01-15 19:00:51:219
0.031,-0.189,-9.884,0,0,0,16945,2021-01-15 19:00:51:227
0.031,-0.189,-9.884,0,0,0,16955,2021-01-15 19:00:51:237
0.031,-0.189,-9.884,0,0,0,16965,2021-01-15 19:00:51:247
0.031,-0.189,-9.884,0,0,0,16975,2021-01-15 19:00:51:257
0.031,-0.189,-9.884,0,0,0,16985,2021-01-15 19:00:51:267
0.024,-0.18,-9.862,0,0,0,16995,2021-01-15 19:00:51:277
0.024,-0.18,-9.862,0,0,0,17005,2021-01-15 19:00:51:287
0.024,-0.18,-9.862,0,0,0,17015,2021-01-15 19:00:51:297
0.024,-0.18,-9.862,0,0,0,17025,2021-01-15 19:00:51:307
0.024,-0.18,-9.862,0,0,0,17035,2021-01-15 19:00:51:317
0.024,-0.18,-9.862,0,0,0,17045,2021-01-15 19:00:51:327
0.029,-0.192,-9.881,0,0,0,17055,2021-01-15 19:00:51:337
0.029,-0.192,-9.881,0,0,0,17065,2021-01-15 19:00:51:347
0.029,-0.192,-9.881,0,0,0,17075,2021-01-15 19:00:51:357
0.029,-0.192,-9.881,0,0,0,17086,2021-01-15 19:00:51:368
0.029,-0.192,-9.881,0,0,0,17096,2021-01-15 19:00:51:378
0.029,-0.192,-9.881,0,0,0,17105,2021-01-15 19:00:51:387
0.036,-0.196,-9.876,0,0,0,17115,2021-01-15 19:00:51:397
0.036,-0.196,-9.876,0,0,0,17125,2021-01-15 19:00:51:407
0.036,-0.196,-9.876,0,0,0,17135,2021-01-15 19:00:51:417
0.036,-0.196,-9.876,0,0,0,17147,2021-01-15 19:00:51:429
0.036,-0.196,-9.876,0,0,0,17155,2021-01-15 19:00:51:437
0.036,-0.196,-9.876,0,0,0,17166,2021-01-15 19:00:51:448
0.022,-0.187,-9.881,0,0,0,17175,2021-01-15 19:00:51:457
0.022,-0.187,-9.881,0,0,0,17186,2021-01-15 19:00:51:468
0.022,-0.187,-9.881,0,0,0,17196,2021-01-15 19:00:51:478
0.022,-0.187,-9.881,0,0,0,17206,2021-01-15 19:00:51:488
0.022,-0.187,-9.881,0,0,0,17215,2021-01-15 19:00:51:497
0.022,-0.187,-9.881,0,0,0,17225,2021-01-15 19:00:51:507
0.019,-0.187,-9.872,0,0,0,17235,2021-01-15 19:00:51:517
0.019,-0.187,-9.872,0,0,0,17247,2021-01-15 19:00:51:529
0.019,-0.187,-9.872,0,0,0,17255,2021-01-15 19:00:51:537
0.019,-0.187,-9.872,0,0,0,17266,2021-01-15 19:00:51:548
0.019,-0.187,-9.872,0,0,0,17275,2021-01-15 19:00:51:557
0.019,-0.187,-9.872,0,0,0,17285,2021-01-15 19:00:51:567
0.031,-0.182,-9.864,0,0,0,17295,2021-01-15 19:00:51:577
0.031,-0.182,-9.864,0,0,0,17305,2021-01-15 19:00:51:587
0.031,-0.182,-9.864,0,0,0,17315,2021-01-15 19:00:51:597
0.031,-0.182,-9.864,0,0,0,17325,2021-01-15 19:00:51:607
0.031,-0.182,-9.864,0,0,0,17335,2021-01-15 19:00:51:617
0.031,-0.182,-9.864,0,0,0,17345,2021-01-15 19:00:51:627
0.022,-0.187,-9.867,0,0,0,17355,2021-01-15 19:00:51:637
0.022,-0.187,-9.867,0,0,0,17366,2021-01-15 19:00:51:648
0.022,-0.187,-9.867,0,0,0,17375,2021-01-15 19:00:51:657
0.022,-0.187,-9.867,0,0,0,17385,2021-01-15 19:00:51:667
0.022,-0.187,-9.867,0,0,0,17395,2021-01-15 19:00:51:677
0.022,-0.187,-9.867,0,0,0,17405,2021-01-15 19:00:51:687
0.022,-0.182,-9.855,0,0,0,17416,2021-01-15 19:00:51:698
0.022,-0.182,-9.855,0,0,0,17425,2021-01-15 19:00:51:707
0.022,-0.182,-9.855,0,0,0,17435,2021-01-15 19:00:51:717
0.022,-0.182,-9.855,0,0,0,17445,2021-01-15 19:00:51:727
0.022,-0.182,-9.855,0,0,0,17455,2021-01-15 19:00:51:737
0.022,-0.182,-9.855,0,0,0,17466,2021-01-15 19:00:51:748
0.01,-0.184,-9.872,0,0,0,17476,2021-01-15 19:00:51:758
0.01,-0.184,-9.872,0,0,0,17486,2021-01-15 19:00:51:768
0.01,-0.184,-9.872,0,0,0,17496,2021-01-15 19:00:51:778
0.01,-0.184,-9.872,0,0,0,17505,2021-01-15 19:00:51:787
0.01,-0.184,-9.872,0,0,0,17515,2021-01-15 19:00:51:797
0.01,-0.184,-9.872,0,0,0,17525,2021-01-15 19:00:51:807
0.022,-0.192,-9.862,0,0,0,17535,2021-01-15 19:00:51:817
0.022,-0.192,-9.862,0,0,0,17545,2021-01-15 19:00:51:827
0.022,-0.192,-9.862,0,0,0,17555,2021-01-15 19:00:51:837
0.022,-0.192,-9.862,0,0,0,17565,2021-01-15 19:00:51:847
0.022,-0.192,-9.862,0,0,0,17576,2021-01-15 19:00:51:858
0.022,-0.192,-9.862,0,0,0,17585,2021-01-15 19:00:51:867
0.014,-0.194,-9.874,0,0,0,17595,2021-01-15 19:00:51:877
0.014,-0.194,-9.874,0,0,0,17605,2021-01-15 19:00:51:887
0.014,-0.194,-9.874,0,0,0,17616,2021-01-15 19:00:51:898
0.014,-0.194,-9.874,0,0,0,17631,2021-01-15 19:00:51:913
0.014,-0.194,-9.874,0,0,0,17635,2021-01-15 19:00:51:917
0.014,-0.194,-9.874,0,0,0,17646,2021-01-15 19:00:51:928
0.031,-0.184,-9.869,0,0,0,17656,2021-01-15 19:00:51:938
0.031,-0.184,-9.869,0,0,0,17665,2021-01-15 19:00:51:947
0.031,-0.184,-9.869,0,0,0,17675,2021-01-15 19:00:51:957
0.031,-0.184,-9.869,0,0,0,17685,2021-01-15 19:00:51:967
0.031,-0.184,-9.869,0,0,0,17696,2021-01-15 19:00:51:978
0.031,-0.184,-9.869,0,0,0,17705,2021-01-15 19:00:51:987
0.026,-0.18,-9.857,0,0,0,17715,2021-01-15 19:00:51:997
0.026,-0.18,-9.857,0,0,0,17725,2021-01-15 19:00:52:007
0.026,-0.18,-9.857,0,0,0,17735,2021-01-15 19:00:52:017
0.026,-0.18,-9.857,0,0,0,17745,2021-01-15 19:00:52:027
0.026,-0.18,-9.857,0,0,0,17759,2021-01-15 19:00:52:041
0.026,-0.18,-9.857,0,0,0,17765,2021-01-15 19:00:52:047
0.022,-0.184,-9.867,0,0,0,17776,2021-01-15 19:00:52:058
0.022,-0.184,-9.867,0,0,0,17785,2021-01-15 19:00:52:067
0.022,-0.184,-9.867,0,0,0,17795,2021-01-15 19:00:52:077
0.022,-0.184,-9.867,0,0,0,17805,2021-01-15 19:00:52:087
0.022,-0.184,-9.867,0,0,0,17816,2021-01-15 19:00:52:098
0.022,-0.184,-9.867,0,0,0,17825,2021-01-15 19:00:52:107
0.029,-0.177,-9.876,0,0,0,17836,2021-01-15 19:00:52:118
0.029,-0.177,-9.876,0,0,0,17845,2021-01-15 19:00:52:127
0.029,-0.177,-9.876,0,0,0,17855,2021-01-15 19:00:52:137
0.029,-0.177,-9.876,0,0,0,17865,2021-01-15 19:00:52:147
0.029,-0.177,-9.876,0,0,0,17875,2021-01-15 19:00:52:157
0.029,-0.177,-9.876,0,0,0,17885,2021-01-15 19:00:52:167
0.022,-0.184,-9.874,0,0,0,17896,2021-01-15 19:00:52:178
0.022,-0.184,-9.874,0,0,0,17906,2021-01-15 19:00:52:188
0.022,-0.184,-9.874,0,0,0,17915,2021-01-15 19:00:52:197
0.022,-0.184,-9.874,0,0,0,17926,2021-01-15 19:00:52:208
0.022,-0.184,-9.874,0,0,0,17935,2021-01-15 19:00:52:217
0.022,-0.184,-9.874,0,0,0,17953,2021-01-15 19:00:52:235
0.012,-0.177,-9.874,0,0,0,17959,2021-01-15 19:00:52:241
0.012,-0.177,-9.874,0,0,0,17965,2021-01-15 19:00:52:247
0.012,-0.177,-9.874,0,0,0,17975,2021-01-15 19:00:52:257
0.012,-0.177,-9.874,0,0,0,17985,2021-01-15 19:00:52:267
0.012,-0.177,-9.874,0,0,0,17995,2021-01-15 19:00:52:277
0.012,-0.177,-9.874,0,0,0,18005,2021-01-15 19:00:52:287
0.036,-0.184,-9.864,0,0,0,18016,2021-01-15 19:00:52:298
0.036,-0.184,-9.864,0,0,0,18025,2021-01-15 19:00:52:307
0.036,-0.184,-9.864,0,0,0,18035,2021-01-15 19:00:52:317
0.036,-0.184,-9.864,0,0,0,18046,2021-01-15 19:00:52:328
0.036,-0.184,-9.864,0,0,0,18056,2021-01-15 19:00:52:338
0.036,-0.184,-9.864,0,0,0,18066,2021-01-15 19:00:52:348
0.041,-0.175,-9.881,0,0,0,18075,2021-01-15 19:00:52:357
0.041,-0.175,-9.881,0,0,0,18086,2021-01-15 19:00:52:368
0.041,-0.175,-9.881,0,0,0,18096,2021-01-15 19:00:52:378
0.041,-0.175,-9.881,0,0,0,18106,2021-01-15 19:00:52:388
0.041,-0.175,-9.881,0,0,0,18116,2021-01-15 19:00:52:398
0.041,-0.175,-9.881,0,0,0,18127,2021-01-15 19:00:52:409
0.005,-0.182,-9.874,0,0,0,18136,2021-01-15 19:00:52:418
0.005,-0.182,-9.874,0,0,0,18145,2021-01-15 19:00:52:427
0.005,-0.182,-9.874,0,0,0,18156,2021-01-15 19:00:52:438
0.005,-0.182,-9.874,0,0,0,18166,2021-01-15 19:00:52:448
0.005,-0.182,-9.874,0,0,0,18175,2021-01-15 19:00:52:457
0.005,-0.182,-9.874,0,0,0,18185,2021-01-15 19:00:52:467
0.019,-0.192,-9.867,0,0,0,18195,2021-01-15 19:00:52:477
0.019,-0.192,-9.867,0,0,0,18205,2021-01-15 19:00:52:487
0.019,-0.192,-9.867,0,0,0,18215,2021-01-15 19:00:52:497
0.019,-0.192,-9.867,0,0,0,18227,2021-01-15 19:00:52:509
0.019,-0.192,-9.867,0,0,0,18236,2021-01-15 19:00:52:518
0.019,-0.192,-9.867,0,0,0,18247,2021-01-15 19:00:52:529
0.026,-0.192,-9.874,0,0,0,18255,2021-01-15 19:00:52:537
0.026,-0.192,-9.874,0,0,0,18265,2021-01-15 19:00:52:547
0.026,-0.192,-9.874,0,0,0,18275,2021-01-15 19:00:52:557
0.026,-0.192,-9.874,0,0,0,18286,2021-01-15 19:00:52:568
0.026,-0.192,-9.874,0,0,0,18299,2021-01-15 19:00:52:581
0.026,-0.192,-9.874,0,0,0,18305,2021-01-15 19:00:52:587
0.007,-0.187,-9.879,0,0,0,18316,2021-01-15 19:00:52:598
0.007,-0.187,-9.879,0,0,0,18325,2021-01-15 19:00:52:607
0.007,-0.187,-9.879,0,0,0,18336,2021-01-15 19:00:52:618
0.007,-0.187,-9.879,0,0,0,18346,2021-01-15 19:00:52:628
0.007,-0.187,-9.879,0,0,0,18355,2021-01-15 19:00:52:637
0.007,-0.187,-9.879,0,0,0,18365,2021-01-15 19:00:52:647
0.024,-0.172,-9.864,0,0,0,18376,2021-01-15 19:00:52:658
0.024,-0.172,-9.864,0,0,0,18385,2021-01-15 19:00:52:667
0.024,-0.172,-9.864,0,0,0,18396,2021-01-15 19:00:52:678
0.024,-0.172,-9.864,0,0,0,18405,2021-01-15 19:00:52:687
0.024,-0.172,-9.864,0,0,0,18418,2021-01-15 19:00:52:700
0.024,-0.172,-9.864,0,0,0,18425,2021-01-15 19:00:52:707
0.019,-0.192,-9.85,0,0,0,18435,2021-01-15 19:00:52:717
0.019,-0.192,-9.85,0,0,0,18445,2021-01-15 19:00:52:727
0.019,-0.192,-9.85,0,0,0,18455,2021-01-15 19:00:52:737
0.019,-0.192,-9.85,0,0,0,18466,2021-01-15 19:00:52:748
0.019,-0.192,-9.85,0,0,0,18476,2021-01-15 19:00:52:758
0.019,-0.192,-9.85,0,0,0,18485,2021-01-15 19:00:52:767
0.022,-0.189,-9.881,0,0,0,18495,2021-01-15 19:00:52:777
0.022,-0.189,-9.881,0,0,0,18505,2021-01-15 19:00:52:787
0.022,-0.189,-9.881,0,0,0,18516,2021-01-15 19:00:52:798
0.022,-0.189,-9.881,0,0,0,18531,2021-01-15 19:00:52:813
0.022,-0.189,-9.881,0,0,0,18535,2021-01-15 19:00:52:817
0.022,-0.189,-9.881,0,0,0,18546,2021-01-15 19:00:52:828
0.041,-0.18,-9.86,0,0,0,18555,2021-01-15 19:00:52:837
0.041,-0.18,-9.86,0,0,0,18565,2021-01-15 19:00:52:847
0.041,-0.18,-9.86,0,0,0,18575,2021-01-15 19:00:52:857
0.041,-0.18,-9.86,0,0,0,18593,2021-01-15 19:00:52:875
0.041,-0.18,-9.86,0,0,0,18597,2021-01-15 19:00:52:879
0.041,-0.18,-9.86,0,0,0,18605,2021-01-15 19:00:52:887
0.012,-0.184,-9.862,0,0,0,18615,2021-01-15 19:00:52:897
0.012,-0.184,-9.862,0,0,0,18628,2021-01-15 19:00:52:910
0.012,-0.184,-9.862,0,0,0,18635,2021-01-15 19:00:52:917
0.012,-0.184,-9.862,0,0,0,18645,2021-01-15 19:00:52:927
0.012,-0.184,-9.862,0,0,0,18655,2021-01-15 19:00:52:937
0.012,-0.184,-9.862,0,0,0,18667,2021-01-15 19:00:52:949
0.024,-0.172,-9.876,0,0,0,18675,2021-01-15 19:00:52:957
0.024,-0.172,-9.876,0,0,0,18685,2021-01-15 19:00:52:967
0.024,-0.172,-9.876,0,0,0,18696,2021-01-15 19:00:52:978
0.024,-0.172,-9.876,0,0,0,18705,2021-01-15 19:00:52:987
0.024,-0.172,-9.876,0,0,0,18715,2021-01-15 19:00:52:997
0.024,-0.172,-9.876,0,0,0,18725,2021-01-15 19:00:53:007
0.022,-0.189,-9.876,0,0,0,18736,2021-01-15 19:00:53:018
0.022,-0.189,-9.876,0,0,0,18745,2021-01-15 19:00:53:027
0.022,-0.189,-9.876,0,0,0,18755,2021-01-15 19:00:53:037
0.022,-0.189,-9.876,0,0,0,18766,2021-01-15 19:00:53:048
0.022,-0.189,-9.876,0,0,0,18775,2021-01-15 19:00:53:057
0.022,-0.189,-9.876,0,0,0,18786,2021-01-15 19:00:53:068
0.026,-0.18,-9.872,0,0,0,18796,2021-01-15 19:00:53:078
0.026,-0.18,-9.872,0,0,0,18805,2021-01-15 19:00:53:087
0.026,-0.18,-9.872,0,0,0,18816,2021-01-15 19:00:53:098
0.026,-0.18,-9.872,0,0,0,18825,2021-01-15 19:00:53:107
0.026,-0.18,-9.872,0,0,0,18835,2021-01-15 19:00:53:117
0.026,-0.18,-9.872,0,0,0,18846,2021-01-15 19:00:53:128
0.041,-0.194,-9.869,0,0,0,18856,2021-01-15 19:00:53:138
0.041,-0.194,-9.869,0,0,0,18865,2021-01-15 19:00:53:147
0.041,-0.194,-9.869,0,0,0,18875,2021-01-15 19:00:53:157
0.041,-0.194,-9.869,0,0,0,18887,2021-01-15 19:00:53:169
0.041,-0.194,-9.869,0,0,0,18895,2021-01-15 19:00:53:177
0.041,-0.194,-9.869,0,0,0,18905,2021-01-15 19:00:53:187
0.036,-0.187,-9.869,0,0,0,18915,2021-01-15 19:00:53:197
0.036,-0.187,-9.869,0,0,0,18926,2021-01-15 19:00:53:208
0.036,-0.187,-9.869,0,0,0,18935,2021-01-15 19:00:53:217
0.036,-0.187,-9.869,0,0,0,18945,2021-01-15 19:00:53:227
0.036,-0.187,-9.869,0,0,0,18955,2021-01-15 19:00:53:237
0.036,-0.187,-9.869,0,0,0,18965,2021-01-15 19:00:53:247
0.007,-0.189,-9.869,0,0,0,18975,2021-01-15 19:00:53:257
0.007,-0.189,-9.869,0,0,0,18985,2021-01-15 19:00:53:267
0.007,-0.189,-9.869,0,0,0,18995,2021-01-15 19:00:53:277
0.007,-0.189,-9.869,0,0,0,19005,2021-01-15 19:00:53:287
0.007,-0.189,-9.869,0,0,0,19016,2021-01-15 19:00:53:298
0.007,-0.189,-9.869,0,0,0,19025,2021-01-15 19:00:53:307
0.034,-0.196,-9.874,0,0,0,19035,2021-01-15 19:00:53:317
0.034,-0.196,-9.874,0,0,0,19045,2021-01-15 19:00:53:327
0.034,-0.196,-9.874,0,0,0,19055,2021-01-15 19:00:53:337
0.034,-0.196,-9.874,0,0,0,19065,2021-01-15 19:00:53:347
0.034,-0.196,-9.874,0,0,0,19075,2021-01-15 19:00:53:357
0.034,-0.196,-9.874,0,0,0,19085,2021-01-15 19:00:53:367
0.034,-0.196,-9.874,0,0,0,19095,2021-01-15 19:00:53:377
0.022,-0.172,-9.843,0,0,0,19105,2021-01-15 19:00:53:387
0.022,-0.172,-9.843,0,0,0,19116,2021-01-15 19:00:53:398
0.022,-0.172,-9.843,0,0,0,19129,2021-01-15 19:00:53:411
0.022,-0.172,-9.843,0,0,0,19135,2021-01-15 19:00:53:417
0.022,-0.172,-9.843,0,0,0,19145,2021-01-15 19:00:53:427
0.022,-0.172,-9.843,0,0,0,19156,2021-01-15 19:00:53:438
0.022,-0.172,-9.843,0,0,0,19165,2021-01-15 19:00:53:447
0.019,-0.177,-9.876,0,0,0,19175,2021-01-15 19:00:53:457
0.019,-0.177,-9.876,0,0,0,19185,2021-01-15 19:00:53:467
0.019,-0.177,-9.876,0,0,0,19195,2021-01-15 19:00:53:477
0.019,-0.177,-9.876,0,0,0,19205,2021-01-15 19:00:53:487
0.019,-0.177,-9.876,0,0,0,19215,2021-01-15 19:00:53:497
0.019,-0.177,-9.876,0,0,0,19225,2021-01-15 19:00:53:507
0.017,-0.192,-9.867,0,0,0,19235,2021-01-15 19:00:53:517
0.017,-0.192,-9.867,0,0,0,19244,2021-01-15 19:00:53:526
0.017,-0.192,-9.867,0,0,0,19255,2021-01-15 19:00:53:537
0.017,-0.192,-9.867,0,0,0,19265,2021-01-15 19:00:53:547
0.017,-0.192,-9.867,0,0,0,19275,2021-01-15 19:00:53:557
0.017,-0.192,-9.867,0,0,0,19285,2021-01-15 19:00:53:567
0.024,-0.182,-9.86,0,0,0,19295,2021-01-15 19:00:53:577
0.024,-0.182,-9.86,0,0,0,19305,2021-01-15 19:00:53:587
0.024,-0.182,-9.86,0,0,0,19315,2021-01-15 19:00:53:597
0.024,-0.182,-9.86,0,0,0,19325,2021-01-15 19:00:53:607
0.024,-0.182,-9.86,0,0,0,19335,2021-01-15 19:00:53:617
0.024,-0.182,-9.86,0,0,0,19345,2021-01-15 19:00:53:627
0.024,-0.184,-9.862,0,0,0,19355,2021-01-15 19:00:53:637
0.024,-0.184,-9.862,0,0,0,19365,2021-01-15 19:00:53:647
0.024,-0.184,-9.862,0,0,0,19375,2021-01-15 19:00:53:657
0.024,-0.184,-9.862,0,0,0,19385,2021-01-15 19:00:53:667
0.024,-0.184,-9.862,0,0,0,19394,2021-01-15 19:00:53:676
0.024,-0.184,-9.862,0,0,0,19405,2021-01-15 19:00:53:687
0.017,-0.177,-9.881,0,0,0,19415,2021-01-15 19:00:53:697
0.017,-0.177,-9.881,0,0,0,19425,2021-01-15 19:00:53:707
0.017,-0.177,-9.881,0,0,0,19435,2021-01-15 19:00:53:717
0.017,-0.177,-9.881,0,0,0,19445,2021-01-15 19:00:53:727
0.017,-0.177,-9.881,0,0,0,19455,2021-01-15 19:00:53:737
0.017,-0.177,-9.881,0,0,0,19465,2021-01-15 19:00:53:747
0.019,-0.172,-9.874,0,0,0,19475,2021-01-15 19:00:53:757
0.019,-0.172,-9.874,0,0,0,19484,2021-01-15 19:00:53:766
0.019,-0.172,-9.874,0,0,0,19495,2021-01-15 19:00:53:777
0.019,-0.172,-9.874,0,0,0,19505,2021-01-15 19:00:53:787
0.019,-0.172,-9.874,0,0,0,19515,2021-01-15 19:00:53:797
0.019,-0.172,-9.874,0,0,0,19525,2021-01-15 19:00:53:807
0.019,-0.18,-9.852,0,0,0,19535,2021-01-15 19:00:53:817
0.019,-0.18,-9.852,0,0,0,19545,2021-01-15 19:00:53:827
0.019,-0.18,-9.852,0,0,0,19555,2021-01-15 19:00:53:837
0.019,-0.18,-9.852,0,0,0,19565,2021-01-15 19:00:53:847
0.019,-0.18,-9.852,0,0,0,19575,2021-01-15 19:00:53:857
0.019,-0.18,-9.852,0,0,0,19584,2021-01-15 19:00:53:866
0.031,-0.168,-9.86,0,0,0,19595,2021-01-15 19:00:53:877
0.031,-0.168,-9.86,0,0,0,19605,2021-01-15 19:00:53:887
0.031,-0.168,-9.86,0,0,0,19615,2021-01-15 19:00:53:897
0.031,-0.168,-9.86,0,0,0,19625,2021-01-15 19:00:53:907
0.031,-0.168,-9.86,0,0,0,19635,2021-01-15 19:00:53:917
0.031,-0.168,-9.86,0,0,0,19645,2021-01-15 19:00:53:927
0.019,-0.182,-9.862,0,0,0,19655,2021-01-15 19:00:53:937
0.019,-0.182,-9.862,0,0,0,19665,2021-01-15 19:00:53:947
0.019,-0.182,-9.862,0,0,0,19675,2021-01-15 19:00:53:957
0.019,-0.182,-9.862,0,0,0,19686,2021-01-15 19:00:53:968
0.019,-0.182,-9.862,0,0,0,19695,2021-01-15 19:00:53:977
0.019,-0.182,-9.862,0,0,0,19705,2021-01-15 19:00:53:987
0.022,-0.184,-9.867,0,0,0,19715,2021-01-15 19:00:53:997
0.022,-0.184,-9.867,0,0,0,19725,2021-01-15 19:00:54:007
0.022,-0.184,-9.867,0,0,0,19735,2021-01-15 19:00:54:017
0.022,-0.184,-9.867,0,0,0,19745,2021-01-15 19:00:54:027
0.022,-0.184,-9.867,0,0,0,19755,2021-01-15 19:00:54:037
0.022,-0.184,-9.867,0,0,0,19765,2021-01-15 19:00:54:047
0.002,-0.184,-9.848,0,0,0,19774,2021-01-15 19:00:54:056
0.002,-0.184,-9.848,0,0,0,19785,2021-01-15 19:00:54:067
0.002,-0.184,-9.848,0,-0.001,0,19795,2021-01-15 19:00:54:077
0.002,-0.184,-9.848,0,-0.001,0,19805,2021-01-15 19:00:54:087
0.002,-0.184,-9.848,0,-0.001,0,19815,2021-01-15 19:00:54:097
0.002,-0.184,-9.848,0,-0.001,0,19825,2021-01-15 19:00:54:107
0.024,-0.18,-9.869,0,-0.001,0,19835,2021-01-15 19:00:54:117
0.024,-0.18,-9.869,0,-0.001,0,19845,2021-01-15 19:00:54:127
0.024,-0.18,-9.869,0,-0.001,0,19855,2021-01-15 19:00:54:137
0.024,-0.18,-9.869,0,-0.001,0,19865,2021-01-15 19:00:54:147
0.024,-0.18,-9.869,0,-0.001,0,19875,2021-01-15 19:00:54:157
0.024,-0.18,-9.869,0,-0.001,0,19885,2021-01-15 19:00:54:167
0.026,-0.175,-9.86,0,-0.001,0,19895,2021-01-15 19:00:54:177
0.026,-0.175,-9.86,0,-0.001,0,19905,2021-01-15 19:00:54:187
0.026,-0.175,-9.86,0,0,0,19915,2021-01-15 19:00:54:197
0.026,-0.175,-9.86,0,0,0,19924,2021-01-15 19:00:54:206
0.026,-0.175,-9.86,0,0,0,19935,2021-01-15 19:00:54:217
0.026,-0.175,-9.86,0,0,0,19945,2021-01-15 19:00:54:227
0.029,-0.189,-9.879,0,0,0,19954,2021-01-15 19:00:54:236
0.029,-0.189,-9.879,0,0,0,19965,2021-01-15 19:00:54:247
0.029,-0.189,-9.879,0,0,0,19975,2021-01-15 19:00:54:257
0.029,-0.189,-9.879,0,0,0,19985,2021-01-15 19:00:54:267
0.029,-0.189,-9.879,0,0,0,19995,2021-01-15 19:00:54:277
0.029,-0.189,-9.879,0,0,0,20004,2021-01-15 19:00:54:286
0.012,-0.184,-9.845,0,0,0,20015,2021-01-15 19:00:54:297
0.012,-0.184,-9.845,0,0,0,20025,2021-01-15 19:00:54:307
0.012,-0.184,-9.845,0,0,0,20035,2021-01-15 19:00:54:317
0.012,-0.184,-9.845,0,0,0,20045,2021-01-15 19:00:54:327
0.012,-0.184,-9.845,0,0,0,20055,2021-01-15 19:00:54:337
0.012,-0.184,-9.845,0,0,0,20065,2021-01-15 19:00:54:347
0.019,-0.184,-9.84,0,0,0,20075,2021-01-15 19:00:54:357
0.019,-0.184,-9.84,0,0,0,20084,2021-01-15 19:00:54:366
0.019,-0.184,-9.84,0,0,0,20095,2021-01-15 19:00:54:377
0.019,-0.184,-9.84,0,0,0,20105,2021-01-15 19:00:54:387
0.019,-0.184,-9.84,0,0,0,20115,2021-01-15 19:00:54:397
0.019,-0.184,-9.84,0,0,0,20125,2021-01-15 19:00:54:407
0.022,-0.172,-9.862,0,0,0,20135,2021-01-15 19:00:54:417
0.022,-0.172,-9.862,0,0,0,20145,2021-01-15 19:00:54:427
0.022,-0.172,-9.862,0,0,0,20155,2021-01-15 19:00:54:437
0.022,-0.172,-9.862,0,0,0,20165,2021-01-15 19:00:54:447
0.022,-0.172,-9.862,0,0,0,20175,2021-01-15 19:00:54:457
0.022,-0.172,-9.862,0,0,0,20185,2021-01-15 19:00:54:467
0.022,-0.172,-9.862,0,0,0,20195,2021-01-15 19:00:54:477
0.022,-0.172,-9.862,0,0,0,20205,2021-01-15 19:00:54:487
0.022,-0.172,-9.862,0,0,0,20215,2021-01-15 19:00:54:497
0.022,-0.172,-9.862,0,0,0,20225,2021-01-15 19:00:54:507
0.019,-0.189,-9.869,0,0,0,20235,2021-01-15 19:00:54:517
0.019,-0.189,-9.869,0,0,0,20245,2021-01-15 19:00:54:527
0.019,-0.189,-9.869,0,0,0,20255,2021-01-15 19:00:54:537
0.019,-0.189,-9.869,0,0,0,20265,2021-01-15 19:00:54:547
0.019,-0.189,-9.869,0,0,0,20275,2021-01-15 19:00:54:557
0.019,-0.189,-9.869,0,0,0,20285,2021-01-15 19:00:54:567
0.012,-0.17,-9.855,0,0,0,20295,2021-01-15 19:00:54:577
0.012,-0.17,-9.855,0,0,0,20305,2021-01-15 19:00:54:587
0.012,-0.17,-9.855,0,0,0,20315,2021-01-15 19:00:54:597
0.012,-0.17,-9.855,0,0,0,20325,2021-01-15 19:00:54:607
0.012,-0.17,-9.855,0,0,0,20335,2021-01-15 19:00:54:617
0.012,-0.17,-9.855,0,0,0,20345,2021-01-15 19:00:54:627
0.022,-0.201,-9.862,0,0,0,20355,2021-01-15 19:00:54:637
0.022,-0.201,-9.862,0,0,0,20365,2021-01-15 19:00:54:647
0.022,-0.201,-9.862,0,0,0,20375,2021-01-15 19:00:54:657
0.022,-0.201,-9.862,0,0,0,20385,2021-01-15 19:00:54:667
0.022,-0.201,-9.862,0,0,0,20395,2021-01-15 19:00:54:677
0.022,-0.201,-9.862,0,0,0,20405,2021-01-15 19:00:54:687
0.017,-0.199,-9.852,0,0,0,20415,2021-01-15 19:00:54:697
0.017,-0.199,-9.852,0,0,0,20425,2021-01-15 19:00:54:707
0.017,-0.199,-9.852,0,0,0,20435,2021-01-15 19:00:54:717
0.017,-0.199,-9.852,0,0,0,20445,2021-01-15 19:00:54:727
0.017,-0.199,-9.852,0,0,0,20455,2021-01-15 19:00:54:737
0.017,-0.199,-9.852,0,0,0,20465,2021-01-15 19:00:54:747
0.031,-0.199,-9.86,0,0,0,20475,2021-01-15 19:00:54:757
0.031,-0.199,-9.86,0,0,0,20485,2021-01-15 19:00:54:767
0.031,-0.199,-9.86,0,0,0,20496,2021-01-15 19:00:54:778
0.031,-0.199,-9.86,0,0,0,20505,2021-01-15 19:00:54:787
0.031,-0.199,-9.86,0,0,0,20515,2021-01-15 19:00:54:797
0.031,-0.199,-9.86,0,0,0,20526,2021-01-15 19:00:54:808
0.017,-0.187,-9.86,0,0,0,20535,2021-01-15 19:00:54:817
0.017,-0.187,-9.86,0,0,0,20545,2021-01-15 19:00:54:827
0.017,-0.187,-9.86,0,0,0,20555,2021-01-15 19:00:54:837
0.017,-0.187,-9.86,0,0,0,20565,2021-01-15 19:00:54:847
0.017,-0.187,-9.86,0,0,0,20575,2021-01-15 19:00:54:857
0.017,-0.187,-9.86,0,0,0,20586,2021-01-15 19:00:54:868
0.024,-0.189,-9.884,0,0,0,20595,2021-01-15 19:00:54:877
0.024,-0.189,-9.884,0,0,0,20605,2021-01-15 19:00:54:887
0.024,-0.189,-9.884,0,0,0,20615,2021-01-15 19:00:54:897
0.024,-0.189,-9.884,0,0,0,20626,2021-01-15 19:00:54:908
0.024,-0.189,-9.884,0,0,0,20635,2021-01-15 19:00:54:917
0.024,-0.189,-9.884,0,0,0,20645,2021-01-15 19:00:54:927
0.022,-0.187,-9.855,0,0,0,20655,2021-01-15 19:00:54:937
0.022,-0.187,-9.855,0,0,0,20665,2021-01-15 19:00:54:947
0.022,-0.187,-9.855,0,0,0,20675,2021-01-15 19:00:54:957
0.022,-0.187,-9.855,0,0,0,20685,2021-01-15 19:00:54:967
0.022,-0.187,-9.855,0,0,0,20695,2021-01-15 19:00:54:977
0.022,-0.187,-9.855,0,0,0,20706,2021-01-15 19:00:54:988
0.007,-0.177,-9.876,0,0,0,20715,2021-01-15 19:00:54:997
0.007,-0.177,-9.876,0,0,0,20725,2021-01-15 19:00:55:007
0.007,-0.177,-9.876,0,0,0,20735,2021-01-15 19:00:55:017
0.007,-0.177,-9.876,0,0,0,20745,2021-01-15 19:00:55:027
0.007,-0.177,-9.876,0,0,0,20755,2021-01-15 19:00:55:037
0.007,-0.177,-9.876,0,0,0,20765,2021-01-15 19:00:55:047
0.014,-0.192,-9.86,0,0,0,20775,2021-01-15 19:00:55:057
0.014,-0.192,-9.86,0,0,0,20785,2021-01-15 19:00:55:067
0.014,-0.192,-9.86,0,0,0,20795,2021-01-15 19:00:55:077
0.014,-0.192,-9.86,0,0,0,20805,2021-01-15 19:00:55:087
0.014,-0.192,-9.86,0,0,0,20815,2021-01-15 19:00:55:097
0.014,-0.192,-9.86,0,0,0,20825,2021-01-15 19:00:55:107
0.017,-0.18,-9.852,0,0,0,20835,2021-01-15 19:00:55:117
0.017,-0.18,-9.852,0,0,0,20845,2021-01-15 19:00:55:127
0.017,-0.18,-9.852,0,0,0,20855,2021-01-15 19:00:55:137
0.017,-0.18,-9.852,0,0,0,20865,2021-01-15 19:00:55:147
0.017,-0.18,-9.852,0,0,0,20876,2021-01-15 19:00:55:158
0.017,-0.18,-9.852,0,0,0,20885,2021-01-15 19:00:55:167
0.005,-0.189,-9.864,0,0,0,20895,2021-01-15 19:00:55:177
0.005,-0.189,-9.864,0,0,0,20905,2021-01-15 19:00:55:187
0.005,-0.189,-9.864,0,0,0,20915,2021-01-15 19:00:55:197
0.005,-0.189,-9.864,0,0,0,20925,2021-01-15 19:00:55:207
0.005,-0.189,-9.864,0,0,0,20936,2021-01-15 19:00:55:218
0.005,-0.189,-9.864,0,0,0,20945,2021-01-15 19:00:55:227
0.019,-0.192,-9.86,0,0,0,20955,2021-01-15 19:00:55:237
0.019,-0.192,-9.86,0,0,0,20965,2021-01-15 19:00:55:247
0.019,-0.192,-9.86,0,0,0,20975,2021-01-15 19:00:55:257
0.019,-0.192,-9.86,0,0,0,20985,2021-01-15 19:00:55:267
0.019,-0.192,-9.86,0,0,0,20995,2021-01-15 19:00:55:277
0.019,-0.192,-9.86,0,0,0,21005,2021-01-15 19:00:55:287
0.017,-0.18,-9.857,0,0,0,21015,2021-01-15 19:00:55:297
0.017,-0.18,-9.857,0,0,0,21025,2021-01-15 19:00:55:307
0.017,-0.18,-9.857,0,0,0,21035,2021-01-15 19:00:55:317
0.017,-0.18,-9.857,0,0,0,21046,2021-01-15 19:00:55:328
0.017,-0.18,-9.857,0,0,0,21055,2021-01-15 19:00:55:337
0.017,-0.18,-9.857,0,0,0,21065,2021-01-15 19:00:55:347
0.022,-0.184,-9.874,0,0,0,21075,2021-01-15 19:00:55:357
0.022,-0.184,-9.874,0,0,0,21085,2021-01-15 19:00:55:367
0.022,-0.184,-9.874,0,0,0,21095,2021-01-15 19:00:55:377
0.022,-0.184,-9.874,0,0,0,21105,2021-01-15 19:00:55:387
0.022,-0.184,-9.874,0,0,0,21115,2021-01-15 19:00:55:397
0.022,-0.184,-9.874,0,0,0,21125,2021-01-15 19:00:55:407
0.026,-0.184,-9.85,0,0,0,21135,2021-01-15 19:00:55:417
0.026,-0.184,-9.85,0,0,0,21145,2021-01-15 19:00:55:427
0.026,-0.184,-9.85,0,0,0,21155,2021-01-15 19:00:55:437
0.026,-0.184,-9.85,0,0,0,21165,2021-01-15 19:00:55:447
0.026,-0.184,-9.85,0,0,0,21175,2021-01-15 19:00:55:457
0.026,-0.184,-9.85,0,0,0,21185,2021-01-15 19:00:55:467
0.002,-0.17,-9.867,0,0,0,21194,2021-01-15 19:00:55:476
0.002,-0.17,-9.867,0,0,0,21205,2021-01-15 19:00:55:487
0.002,-0.17,-9.867,0,0,0,21215,2021-01-15 19:00:55:497
0.002,-0.17,-9.867,0,0,0,21225,2021-01-15 19:00:55:507
0.002,-0.17,-9.867,0,0,0,21235,2021-01-15 19:00:55:517
0.002,-0.17,-9.867,0,0,0,21245,2021-01-15 19:00:55:527
0.026,-0.18,-9.85,0,0,0,21255,2021-01-15 19:00:55:537
0.026,-0.18,-9.85,0,0,0,21265,2021-01-15 19:00:55:547
0.026,-0.18,-9.85,0,0,0,21275,2021-01-15 19:00:55:557
0.026,-0.18,-9.85,0,0,0,21285,2021-01-15 19:00:55:567
0.026,-0.18,-9.85,0,0,0,21296,2021-01-15 19:00:55:578
0.026,-0.18,-9.85,0,0,0,21306,2021-01-15 19:00:55:588
0.026,-0.187,-9.855,0,0,0,21315,2021-01-15 19:00:55:597
0.026,-0.187,-9.855,0,0,0,21325,2021-01-15 19:00:55:607
0.026,-0.187,-9.855,0,0,0,21335,2021-01-15 19:00:55:617
0.026,-0.187,-9.855,0,0,0,21345,2021-01-15 19:00:55:627
0.026,-0.187,-9.855,0,0,0,21355,2021-01-15 19:00:55:637
0.026,-0.187,-9.855,0,0,0,21365,2021-01-15 19:00:55:647
0.024,-0.18,-9.857,0,0,0,21375,2021-01-15 19:00:55:657
0.024,-0.18,-9.857,0,0,0,21385,2021-01-15 19:00:55:667
0.024,-0.18,-9.857,0,0,0,21395,2021-01-15 19:00:55:677
0.024,-0.18,-9.857,0,0,0,21405,2021-01-15 19:00:55:687
0.024,-0.18,-9.857,0,0,0,21415,2021-01-15 19:00:55:697
0.024,-0.18,-9.857,0,0,0,21425,2021-01-15 19:00:55:707
0.034,-0.201,-9.864,0,0,0,21436,2021-01-15 19:00:55:718
0.034,-0.201,-9.864,0,0,0,21445,2021-01-15 19:00:55:727
0.034,-0.201,-9.864,0,0,0,21455,2021-01-15 19:00:55:737
0.034,-0.201,-9.864,0,0,0,21465,2021-01-15 19:00:55:747
0.034,-0.201,-9.864,0,0,0,21475,2021-01-15 19:00:55:757
0.034,-0.201,-9.864,0,0,0,21485,2021-01-15 19:00:55:767
0.024,-0.192,-9.864,0,0,0,21495,2021-01-15 19:00:55:777
0.024,-0.192,-9.864,0,0,0,21505,2021-01-15 19:00:55:787
0.024,-0.192,-9.864,0,0,0,21515,2021-01-15 19:00:55:797
0.024,-0.192,-9.864,0,0,0,21525,2021-01-15 19:00:55:807
0.024,-0.192,-9.864,0,0,0,21535,2021-01-15 19:00:55:817
0.024,-0.192,-9.864,0,0,0,21545,2021-01-15 19:00:55:827
0.014,-0.18,-9.864,0,0,0,21555,2021-01-15 19:00:55:837
0.014,-0.18,-9.864,0,0,0,21565,2021-01-15 19:00:55:847
0.014,-0.18,-9.864,0,0,0,21575,2021-01-15 19:00:55:857
0.014,-0.18,-9.864,0,0,0,21585,2021-01-15 19:00:55:867
0.014,-0.18,-9.864,0,0,0,21595,2021-01-15 19:00:55:877
0.014,-0.18,-9.864,0,0,0,21605,2021-01-15 19:00:55:887
0.012,-0.187,-9.86,0,0,0,21615,2021-01-15 19:00:55:897
0.012,-0.187,-9.86,0,0,0,21625,2021-01-15 19:00:55:907
0.012,-0.187,-9.86,0,0,0,21635,2021-01-15 19:00:55:917
0.012,-0.187,-9.86,0,0,0,21645,2021-01-15 19:00:55:927
0.012,-0.187,-9.86,0,0,0,21655,2021-01-15 19:00:55:937
0.012,-0.187,-9.86,0,0,0,21665,2021-01-15 19:00:55:947
0.017,-0.182,-9.874,0,0,0,21675,2021-01-15 19:00:55:957
0.017,-0.182,-9.874,0,0,0,21685,2021-01-15 19:00:55:967
0.017,-0.182,-9.874,0,0,0,21695,2021-01-15 19:00:55:977
0.017,-0.182,-9.874,0,0,0,21705,2021-01-15 19:00:55:987
0.017,-0.182,-9.874,0,0,0,21715,2021-01-15 19:00:55:997
0.017,-0.182,-9.874,0,0,0,21725,2021-01-15 19:00:56:007
0.029,-0.18,-9.84,0,0,0,21735,2021-01-15 19:00:56:017
0.029,-0.18,-9.84,0,0,0,21745,2021-01-15 19:00:56:027
0.029,-0.18,-9.84,0,0,0,21754,2021-01-15 19:00:56:036
0.029,-0.18,-9.84,0,0,0,21765,2021-01-15 19:00:56:047
0.029,-0.18,-9.84,0,0,0,21775,2021-01-15 19:00:56:057
0.029,-0.18,-9.84,0,0,0,21785,2021-01-15 19:00:56:067
0.029,-0.175,-9.852,0,0,0,21795,2021-01-15 19:00:56:077
0.029,-0.175,-9.852,0,0,0,21805,2021-01-15 19:00:56:087
0.029,-0.175,-9.852,0,0,0,21815,2021-01-15 19:00:56:097
0.029,-0.175,-9.852,0,0,0,21825,2021-01-15 19:00:56:107
0.029,-0.175,-9.852,0,0,0,21835,2021-01-15 19:00:56:117
0.029,-0.175,-9.852,0,0,0,21845,2021-01-15 19:00:56:127
0.024,-0.196,-9.852,0,0,0,21855,2021-01-15 19:00:56:137
0.024,-0.196,-9.852,0,0,0,21865,2021-01-15 19:00:56:147
0.024,-0.196,-9.852,0,0,0,21875,2021-01-15 19:00:56:157
0.024,-0.196,-9.852,0,0,0,21885,2021-01-15 19:00:56:167
0.024,-0.196,-9.852,0,0,0,21895,2021-01-15 19:00:56:177
0.024,-0.196,-9.852,0,0,0,21906,2021-01-15 19:00:56:188
0.038,-0.199,-9.867,0,0,0,21915,2021-01-15 19:00:56:197
0.038,-0.199,-9.867,0,0,0,21926,2021-01-15 19:00:56:208
0.038,-0.199,-9.867,0,0,0,21935,2021-01-15 19:00:56:217
0.038,-0.199,-9.867,0,0,0,21946,2021-01-15 19:00:56:228
0.038,-0.199,-9.867,0,0,0,21956,2021-01-15 19:00:56:238
0.038,-0.199,-9.867,0,0,0,21965,2021-01-15 19:00:56:247
0.022,-0.182,-9.872,0,0,0,21976,2021-01-15 19:00:56:258
0.022,-0.182,-9.872,0,0,0,21985,2021-01-15 19:00:56:267
0.022,-0.182,-9.872,0,0,0,21995,2021-01-15 19:00:56:277
0.022,-0.182,-9.872,0,0,0,22005,2021-01-15 19:00:56:287
0.022,-0.182,-9.872,0,0,0,22015,2021-01-15 19:00:56:297
0.022,-0.182,-9.872,0,0,0,22025,2021-01-15 19:00:56:307
0.007,-0.187,-9.872,0,0,0,22035,2021-01-15 19:00:56:317
0.007,-0.187,-9.872,0,0,0,22045,2021-01-15 19:00:56:327
0.007,-0.187,-9.872,0,0,0,22055,2021-01-15 19:00:56:337
0.007,-0.187,-9.872,0,0,0,22065,2021-01-15 19:00:56:347
0.007,-0.187,-9.872,0,0,0,22075,2021-01-15 19:00:56:357
0.007,-0.187,-9.872,0,0,0,22085,2021-01-15 19:00:56:367
0.007,-0.189,-9.862,0,0,0,22096,2021-01-15 19:00:56:378
0.007,-0.189,-9.862,0,0,0,22105,2021-01-15 19:00:56:387
0.007,-0.189,-9.862,0,0,0,22115,2021-01-15 19:00:56:397
0.007,-0.189,-9.862,0,0,0,22125,2021-01-15 19:00:56:407
0.007,-0.189,-9.862,0,0,0,22136,2021-01-15 19:00:56:418
0.007,-0.189,-9.862,0,0,0,22145,2021-01-15 19:00:56:427
0.019,-0.187,-9.86,0,0,0,22155,2021-01-15 19:00:56:437
0.019,-0.187,-9.86,0,0,0,22166,2021-01-15 19:00:56:448
0.019,-0.187,-9.86,0,0,0,22175,2021-01-15 19:00:56:457
0.019,-0.187,-9.86,0,0,0,22186,2021-01-15 19:00:56:468
0.019,-0.187,-9.86,0,0,0,22195,2021-01-15 19:00:56:477
0.019,-0.187,-9.86,0,0,0,22206,2021-01-15 19:00:56:488
0.029,-0.182,-9.864,0,0,0,22216,2021-01-15 19:00:56:498
0.029,-0.182,-9.864,0,0,0,22225,2021-01-15 19:00:56:507
0.029,-0.182,-9.864,0,0,0,22235,2021-01-15 19:00:56:517
0.029,-0.182,-9.864,0,0,0,22246,2021-01-15 19:00:56:528
0.029,-0.182,-9.864,0,0,0,22255,2021-01-15 19:00:56:537
0.029,-0.182,-9.864,0,0,0,22266,2021-01-15 19:00:56:548
0.017,-0.168,-9.84,0,0,0,22275,2021-01-15 19:00:56:557
0.017,-0.168,-9.84,0,0,0,22286,2021-01-15 19:00:56:568
0.017,-0.168,-9.84,0,0,0,22296,2021-01-15 19:00:56:578
0.017,-0.168,-9.84,0,0,0,22308,2021-01-15 19:00:56:590
0.017,-0.168,-9.84,0,0,0,22321,2021-01-15 19:00:56:603
0.017,-0.168,-9.84,0,0,0,22327,2021-01-15 19:00:56:609
0.017,-0.168,-9.84,0,0,0,22335,2021-01-15 19:00:56:617
0.014,-0.189,-9.857,0,0,0,22345,2021-01-15 19:00:56:627
0.014,-0.189,-9.857,0,0,0,22355,2021-01-15 19:00:56:637
0.014,-0.189,-9.857,0,0,0,22365,2021-01-15 19:00:56:647
0.014,-0.189,-9.857,0,0,0,22375,2021-01-15 19:00:56:657
0.014,-0.189,-9.857,0,0,0,22385,2021-01-15 19:00:56:667
0.014,-0.189,-9.857,0,0,0,22396,2021-01-15 19:00:56:678
0.014,-0.189,-9.857,0,0,0,22405,2021-01-15 19:00:56:687
0.012,-0.172,-9.862,0,0,0,22415,2021-01-15 19:00:56:697
0.012,-0.172,-9.862,0,0,0,22426,2021-01-15 19:00:56:708
0.012,-0.172,-9.862,0,0,0,22435,2021-01-15 19:00:56:717
0.012,-0.172,-9.862,0,0,0,22445,2021-01-15 19:00:56:727
0.012,-0.172,-9.862,0,0,0,22455,2021-01-15 19:00:56:737
0.012,-0.172,-9.862,0,0,0,22465,2021-01-15 19:00:56:747
0.005,-0.184,-9.86,0,0,0,22475,2021-01-15 19:00:56:757
0.005,-0.184,-9.86,0,0,0,22485,2021-01-15 19:00:56:767
0.005,-0.184,-9.86,0,0,0,22495,2021-01-15 19:00:56:777
0.005,-0.184,-9.86,0,0,0,22506,2021-01-15 19:00:56:788
0.005,-0.184,-9.86,0,0,0,22516,2021-01-15 19:00:56:798
0.005,-0.184,-9.86,0,0,0,22526,2021-01-15 19:00:56:808
0.012,-0.189,-9.86,0,0,0,22535,2021-01-15 19:00:56:817
0.012,-0.189,-9.86,0,0,0,22545,2021-01-15 19:00:56:827
0.012,-0.189,-9.86,0,0,0,22555,2021-01-15 19:00:56:837
0.012,-0.189,-9.86,0,0,0,22566,2021-01-15 19:00:56:848
0.012,-0.189,-9.86,0,0,0,22576,2021-01-15 19:00:56:858
0.012,-0.189,-9.86,0,0,0,22586,2021-01-15 19:00:56:868
0.034,-0.184,-9.857,0,0,0,22596,2021-01-15 19:00:56:878
0.034,-0.184,-9.857,0,0,0,22606,2021-01-15 19:00:56:888
0.034,-0.184,-9.857,0,0,0,22615,2021-01-15 19:00:56:897
0.034,-0.184,-9.857,0,0,0,22626,2021-01-15 19:00:56:908
0.034,-0.184,-9.857,0,0,0,22635,2021-01-15 19:00:56:917
0.034,-0.184,-9.857,0,0,0,22645,2021-01-15 19:00:56:927
0.022,-0.187,-9.86,0,0,0,22656,2021-01-15 19:00:56:938
0.022,-0.187,-9.86,0,0,0,22666,2021-01-15 19:00:56:948
0.022,-0.187,-9.86,0,0,0,22675,2021-01-15 19:00:56:957
0.022,-0.187,-9.86,0,0,0,22686,2021-01-15 19:00:56:968
0.022,-0.187,-9.86,0,0,0,22696,2021-01-15 19:00:56:978
0.022,-0.187,-9.86,0,0,0,22705,2021-01-15 19:00:56:987
0.022,-0.187,-9.852,0,0,0,22716,2021-01-15 19:00:56:998
0.022,-0.187,-9.852,0,0,0,22725,2021-01-15 19:00:57:007
0.022,-0.187,-9.852,0,0,0,22735,2021-01-15 19:00:57:017
0.022,-0.187,-9.852,0,0,0,22746,2021-01-15 19:00:57:028
0.022,-0.187,-9.852,0,0,0,22755,2021-01-15 19:00:57:037
0.022,-0.187,-9.852,0,0,0,22766,2021-01-15 19:00:57:048
0.031,-0.194,-9.869,0,0,0,22775,2021-01-15 19:00:57:057
0.031,-0.194,-9.869,0,0,0,22786,2021-01-15 19:00:57:068
0.031,-0.194,-9.869,0,0,0,22796,2021-01-15 19:00:57:078
0.031,-0.194,-9.869,0,0,0,22805,2021-01-15 19:00:57:087
0.031,-0.194,-9.869,0,0,0,22816,2021-01-15 19:00:57:098
0.031,-0.194,-9.869,0,0,0,22825,2021-01-15 19:00:57:107
0.012,-0.17,-9.872,0,0,0,22835,2021-01-15 19:00:57:117
0.012,-0.17,-9.872,0,0,0,22845,2021-01-15 19:00:57:127
0.012,-0.17,-9.872,0,0,0,22855,2021-01-15 19:00:57:137
0.012,-0.17,-9.872,0,0,0,22865,2021-01-15 19:00:57:147
0.012,-0.17,-9.872,0,0,0,22875,2021-01-15 19:00:57:157
0.012,-0.17,-9.872,0,0,0,22886,2021-01-15 19:00:57:168
0.012,-0.184,-9.874,0,0,0,22896,2021-01-15 19:00:57:178
0.012,-0.184,-9.874,0,0,0,22905,2021-01-15 19:00:57:187
0.012,-0.184,-9.874,0,0,0,22916,2021-01-15 19:00:57:198
0.012,-0.184,-9.874,0,0,0,22925,2021-01-15 19:00:57:207
0.012,-0.184,-9.874,0,0,0,22935,2021-01-15 19:00:57:217
0.012,-0.184,-9.874,0,0,0,22946,2021-01-15 19:00:57:228
0.019,-0.175,-9.869,0,0,0,22955,2021-01-15 19:00:57:237
0.019,-0.175,-9.869,0,0,0,22965,2021-01-15 19:00:57:247
0.019,-0.175,-9.869,0,0,0,22976,2021-01-15 19:00:57:258
0.019,-0.175,-9.869,0,0,0,22985,2021-01-15 19:00:57:267
0.019,-0.175,-9.869,0,0,0,22995,2021-01-15 19:00:57:277
0.019,-0.175,-9.869,0,0,0,23006,2021-01-15 19:00:57:288
0.029,-0.175,-9.874,0,0,0,23016,2021-01-15 19:00:57:298
0.029,-0.175,-9.874,0,0,0,23025,2021-01-15 19:00:57:307
0.029,-0.175,-9.874,0,0,0,23035,2021-01-15 19:00:57:317
0.029,-0.175,-9.874,0,0,0,23045,2021-01-15 19:00:57:327
0.029,-0.175,-9.874,0,0,0,23055,2021-01-15 19:00:57:337
