ACCELEROMETER X (m/s²),ACCELEROMETER Y (m/s²),ACCELEROMETER Z (m/s²),GYROSCOPE X (rad/s),GYROSCOPE Y (rad/s),GYROSCOPE Z (rad/s),Time since start in ms ,YYYY-MO-DD HH-MI-SS_SSS
-0.002,-0.311,9.711,0,-0.001,0,48,2021-01-15 18:59:28:299
-0.002,-0.311,9.711,0,-0.001,0,57,2021-01-15 18:59:28:308
-0.002,-0.311,9.711,0,-0.001,0,67,2021-01-15 18:59:28:318
-0.002,-0.311,9.711,0,-0.001,0,77,2021-01-15 18:59:28:328
-0.002,-0.311,9.711,0,-0.001,0,87,2021-01-15 18:59:28:338
-0.002,-0.311,9.711,0,-0.001,0,97,2021-01-15 18:59:28:348
-0.017,-0.306,9.735,0,-0.001,0,107,2021-01-15 18:59:28:358
-0.017,-0.306,9.735,0,-0.001,0,117,2021-01-15 18:59:28:368
-0.017,-0.306,9.735,0,-0.001,0,128,2021-01-15 18:59:28:379
-0.017,-0.306,9.735,0,-0.001,0,137,2021-01-15 18:59:28:388
-0.017,-0.306,9.735,0,-0.001,0.001,147,2021-01-15 18:59:28:398
-0.017,-0.306,9.735,0,-0.001,0.001,157,2021-01-15 18:59:28:408
-0.017,-0.297,9.716,0,-0.001,0.001,167,2021-01-15 18:59:28:418
-0.017,-0.297,9.716,0,-0.001,0.001,177,2021-01-15 18:59:28:428
-0.017,-0.297,9.716,0,-0.001,0.001,187,2021-01-15 18:59:28:438
-0.017,-0.297,9.716,0,-0.001,0.001,198,2021-01-15 18:59:28:449
-0.017,-0.297,9.716,0,-0.001,0.001,207,2021-01-15 18:59:28:458
-0.017,-0.297,9.716,0,-0.001,0.001,217,2021-01-15 18:59:28:468
-0.002,-0.29,9.73,0,-0.001,0.001,227,2021-01-15 18:59:28:478
-0.002,-0.29,9.73,0,-0.001,0.001,237,2021-01-15 18:59:28:488
-0.002,-0.29,9.73,0,-0.001,0.001,247,2021-01-15 18:59:28:498
-0.002,-0.29,9.73,0,-0.001,0.001,257,2021-01-15 18:59:28:508
-0.002,-0.29,9.73,0,-0.001,0,267,2021-01-15 18:59:28:518
-0.002,-0.29,9.73,0,-0.001,0,277,2021-01-15 18:59:28:528
-0.002,-0.318,9.711,0,-0.001,0,287,2021-01-15 18:59:28:538
-0.002,-0.318,9.711,0,-0.001,0,299,2021-01-15 18:59:28:550
-0.002,-0.318,9.711,0,-0.001,0,308,2021-01-15 18:59:28:559
-0.002,-0.318,9.711,0,-0.001,0,317,2021-01-15 18:59:28:568
-0.002,-0.318,9.711,0,-0.001,0,327,2021-01-15 18:59:28:578
-0.002,-0.318,9.711,0,-0.001,0,337,2021-01-15 18:59:28:588
-0.017,-0.318,9.716,0,-0.001,0,347,2021-01-15 18:59:28:598
-0.017,-0.318,9.716,0,-0.001,0,357,2021-01-15 18:59:28:608
-0.017,-0.318,9.716,0,-0.001,0,367,2021-01-15 18:59:28:618
-0.017,-0.318,9.716,0,-0.001,0,377,2021-01-15 18:59:28:628
-0.017,-0.318,9.716,0,-0.001,0,388,2021-01-15 18:59:28:639
-0.017,-0.318,9.716,0,-0.001,0,398,2021-01-15 18:59:28:649
-0.019,-0.304,9.742,0,-0.001,0,407,2021-01-15 18:59:28:658
-0.019,-0.304,9.742,0,-0.001,0,417,2021-01-15 18:59:28:668
-0.019,-0.304,9.742,0,-0.001,0,427,2021-01-15 18:59:28:678
-0.019,-0.304,9.742,0,-0.001,0,437,2021-01-15 18:59:28:688
-0.019,-0.304,9.742,0,-0.001,0,448,2021-01-15 18:59:28:699
-0.019,-0.304,9.742,0,-0.001,0,457,2021-01-15 18:59:28:708
-0.007,-0.29,9.728,0,-0.001,0,467,2021-01-15 18:59:28:718
-0.007,-0.29,9.728,0,-0.001,0,477,2021-01-15 18:59:28:728
-0.007,-0.29,9.728,0,-0.001,0,487,2021-01-15 18:59:28:738
-0.007,-0.29,9.728,0,-0.001,0,498,2021-01-15 18:59:28:749
-0.007,-0.29,9.728,0,-0.001,0,507,2021-01-15 18:59:28:758
-0.007,-0.29,9.728,0,-0.001,0,517,2021-01-15 18:59:28:768
-0.002,-0.294,9.723,0,-0.001,0,527,2021-01-15 18:59:28:778
-0.002,-0.294,9.723,0,-0.001,0,537,2021-01-15 18:59:28:788
-0.002,-0.294,9.723,0,-0.001,0,547,2021-01-15 18:59:28:798
-0.002,-0.294,9.723,0,-0.001,0,557,2021-01-15 18:59:28:808
-0.002,-0.294,9.723,0,-0.001,0,567,2021-01-15 18:59:28:818
-0.002,-0.294,9.723,0,-0.001,0,577,2021-01-15 18:59:28:828
-0.007,-0.306,9.716,0,-0.001,0,587,2021-01-15 18:59:28:838
-0.007,-0.306,9.716,0,-0.001,0,597,2021-01-15 18:59:28:848
-0.007,-0.306,9.716,0,-0.001,0,607,2021-01-15 18:59:28:858
-0.007,-0.306,9.716,0,-0.001,0,617,2021-01-15 18:59:28:868
-0.007,-0.306,9.716,0,-0.001,0.001,630,2021-01-15 18:59:28:881
-0.007,-0.306,9.716,0,-0.001,0.001,637,2021-01-15 18:59:28:888
-0.026,-0.299,9.726,0,-0.001,0.001,647,2021-01-15 18:59:28:898
-0.026,-0.299,9.726,0,-0.001,0.001,657,2021-01-15 18:59:28:908
-0.026,-0.299,9.726,0,-0.001,0.001,667,2021-01-15 18:59:28:918
-0.026,-0.299,9.726,0,-0.001,0.001,677,2021-01-15 18:59:28:928
-0.026,-0.299,9.726,0,-0.001,0.001,687,2021-01-15 18:59:28:938
-0.026,-0.299,9.726,0,-0.001,0.001,697,2021-01-15 18:59:28:948
-0.014,-0.311,9.718,0,-0.001,0.001,707,2021-01-15 18:59:28:958
-0.014,-0.311,9.718,0,-0.001,0.001,718,2021-01-15 18:59:28:969
-0.014,-0.311,9.718,0,-0.001,0.001,727,2021-01-15 18:59:28:978
-0.014,-0.311,9.718,0,-0.001,0.001,737,2021-01-15 18:59:28:988
-0.014,-0.311,9.718,0,-0.001,0.001,747,2021-01-15 18:59:28:998
-0.014,-0.311,9.718,0,-0.001,0.001,757,2021-01-15 18:59:29:008
-0.005,-0.302,9.721,0,-0.001,0.001,767,2021-01-15 18:59:29:018
-0.005,-0.302,9.721,0,-0.001,0.001,777,2021-01-15 18:59:29:028
-0.005,-0.302,9.721,0,-0.001,0.001,787,2021-01-15 18:59:29:038
-0.005,-0.302,9.721,0,-0.001,0.001,797,2021-01-15 18:59:29:048
-0.005,-0.302,9.721,0,-0.001,0.001,807,2021-01-15 18:59:29:058
-0.005,-0.302,9.721,0,-0.001,0.001,817,2021-01-15 18:59:29:068
-0.017,-0.299,9.726,0,-0.001,0.001,827,2021-01-15 18:59:29:078
-0.017,-0.299,9.726,0,-0.001,0.001,837,2021-01-15 18:59:29:088
-0.017,-0.299,9.726,0,-0.001,0.001,847,2021-01-15 18:59:29:098
-0.017,-0.299,9.726,0,-0.001,0.001,857,2021-01-15 18:59:29:108
-0.017,-0.299,9.726,0,-0.001,0.001,867,2021-01-15 18:59:29:118
-0.017,-0.299,9.726,0,-0.001,0.001,878,2021-01-15 18:59:29:129
-0.005,-0.302,9.721,0,-0.001,0.001,887,2021-01-15 18:59:29:138
-0.005,-0.302,9.721,0,-0.001,0.001,897,2021-01-15 18:59:29:148
-0.005,-0.302,9.721,0,-0.001,0.001,907,2021-01-15 18:59:29:158
-0.005,-0.302,9.721,0,-0.001,0.001,918,2021-01-15 18:59:29:169
-0.005,-0.302,9.721,0,-0.001,0.001,927,2021-01-15 18:59:29:178
-0.005,-0.302,9.721,0,-0.001,0.001,937,2021-01-15 18:59:29:188
-0.022,-0.29,9.714,0,-0.001,0.001,947,2021-01-15 18:59:29:198
-0.022,-0.29,9.714,0,-0.001,0.001,957,2021-01-15 18:59:29:208
-0.022,-0.29,9.714,0,-0.001,0.001,967,2021-01-15 18:59:29:218
-0.022,-0.29,9.714,0,-0.001,0.001,977,2021-01-15 18:59:29:228
-0.022,-0.29,9.714,0,0,0.001,991,2021-01-15 18:59:29:242
-0.022,-0.29,9.714,0,0,0.001,997,2021-01-15 18:59:29:248
-0.024,-0.311,9.723,0,0,0.001,1008,2021-01-15 18:59:29:259
-0.024,-0.311,9.723,0,0,0.001,1017,2021-01-15 18:59:29:268
-0.024,-0.311,9.723,0,0,0.001,1027,2021-01-15 18:59:29:278
-0.024,-0.311,9.723,0,0,0.001,1038,2021-01-15 18:59:29:289
-0.024,-0.311,9.723,0,0,0.001,1054,2021-01-15 18:59:29:305
-0.024,-0.311,9.723,0,0,0.001,1058,2021-01-15 18:59:29:309
-0.007,-0.297,9.728,0,0,0.001,1067,2021-01-15 18:59:29:318
-0.007,-0.297,9.728,0,0,0.001,1078,2021-01-15 18:59:29:329
-0.007,-0.297,9.728,0,0,0.001,1088,2021-01-15 18:59:29:339
-0.007,-0.297,9.728,0,0,0.001,1097,2021-01-15 18:59:29:348
-0.007,-0.297,9.728,0,-0.001,0,1107,2021-01-15 18:59:29:358
-0.007,-0.297,9.728,0,-0.001,0,1117,2021-01-15 18:59:29:368
-0.01,-0.299,9.738,0,-0.001,0,1127,2021-01-15 18:59:29:378
-0.01,-0.299,9.738,0,-0.001,0,1137,2021-01-15 18:59:29:388
-0.01,-0.299,9.738,0,-0.001,0,1147,2021-01-15 18:59:29:398
-0.01,-0.299,9.738,0,-0.001,0,1158,2021-01-15 18:59:29:409
-0.01,-0.299,9.738,0,-0.001,0,1167,2021-01-15 18:59:29:418
-0.01,-0.299,9.738,0,-0.001,0,1178,2021-01-15 18:59:29:429
-0.019,-0.311,9.728,0,-0.001,0,1187,2021-01-15 18:59:29:438
-0.019,-0.311,9.728,0,-0.001,0,1197,2021-01-15 18:59:29:448
-0.019,-0.311,9.728,0,-0.001,0,1209,2021-01-15 18:59:29:460
-0.019,-0.311,9.728,0,-0.001,0,1217,2021-01-15 18:59:29:468
-0.019,-0.311,9.728,0,-0.001,0.001,1227,2021-01-15 18:59:29:478
-0.019,-0.311,9.728,0,-0.001,0.001,1238,2021-01-15 18:59:29:489
-0.014,-0.297,9.718,0,-0.001,0.001,1247,2021-01-15 18:59:29:498
-0.014,-0.297,9.718,0,-0.001,0.001,1258,2021-01-15 18:59:29:509
-0.014,-0.297,9.718,0,-0.001,0.001,1270,2021-01-15 18:59:29:521
-0.014,-0.297,9.718,0,-0.001,0.001,1277,2021-01-15 18:59:29:528
-0.014,-0.297,9.718,0,-0.001,0.001,1287,2021-01-15 18:59:29:538
-0.014,-0.297,9.718,0,-0.001,0.001,1297,2021-01-15 18:59:29:548
-0.017,-0.297,9.716,0,-0.001,0.001,1307,2021-01-15 18:59:29:558
-0.017,-0.297,9.716,0,-0.001,0.001,1317,2021-01-15 18:59:29:568
-0.017,-0.297,9.716,0,-0.001,0.001,1327,2021-01-15 18:59:29:578
-0.017,-0.297,9.716,0,-0.001,0.001,1338,2021-01-15 18:59:29:589
-0.017,-0.297,9.716,0,-0.001,0.001,1347,2021-01-15 18:59:29:598
-0.017,-0.297,9.716,0,-0.001,0.001,1357,2021-01-15 18:59:29:608
-0.017,-0.302,9.716,0,-0.001,0.001,1367,2021-01-15 18:59:29:618
-0.017,-0.302,9.716,0,-0.001,0.001,1378,2021-01-15 18:59:29:629
-0.017,-0.302,9.716,0,-0.001,0.001,1390,2021-01-15 18:59:29:641
-0.017,-0.302,9.716,0,-0.001,0.001,1398,2021-01-15 18:59:29:649
-0.017,-0.302,9.716,0,-0.001,0.001,1407,2021-01-15 18:59:29:658
-0.017,-0.302,9.716,0,-0.001,0.001,1417,2021-01-15 18:59:29:668
-0.012,-0.287,9.706,0,-0.001,0.001,1427,2021-01-15 18:59:29:678
-0.012,-0.287,9.706,0,-0.001,0.001,1438,2021-01-15 18:59:29:689
-0.012,-0.287,9.706,0,-0.001,0.001,1447,2021-01-15 18:59:29:698
-0.012,-0.287,9.706,0,-0.001,0.001,1457,2021-01-15 18:59:29:708
-0.012,-0.287,9.706,0,-0.001,0,1467,2021-01-15 18:59:29:718
-0.012,-0.287,9.706,0,-0.001,0,1477,2021-01-15 18:59:29:728
-0.017,-0.302,9.721,0,-0.001,0,1493,2021-01-15 18:59:29:744
-0.017,-0.302,9.721,0,-0.001,0,1497,2021-01-15 18:59:29:748
-0.017,-0.302,9.721,0,-0.001,0,1507,2021-01-15 18:59:29:758
-0.017,-0.302,9.721,0,-0.001,0,1529,2021-01-15 18:59:29:780
-0.017,-0.302,9.721,0,-0.001,0,1530,2021-01-15 18:59:29:781
-0.017,-0.302,9.721,0,-0.001,0,1537,2021-01-15 18:59:29:788
-0.007,-0.294,9.709,0,-0.001,0,1547,2021-01-15 18:59:29:798
-0.007,-0.294,9.709,0,-0.001,0,1557,2021-01-15 18:59:29:808
-0.007,-0.294,9.709,0,-0.001,0,1567,2021-01-15 18:59:29:818
-0.007,-0.294,9.709,0,-0.001,0,1578,2021-01-15 18:59:29:829
-0.007,-0.294,9.709,0,-0.001,0,1589,2021-01-15 18:59:29:840
-0.007,-0.294,9.709,0,-0.001,0,1598,2021-01-15 18:59:29:849
-0.026,-0.302,9.721,0,-0.001,0,1607,2021-01-15 18:59:29:858
-0.026,-0.302,9.721,0,-0.001,0,1617,2021-01-15 18:59:29:868
-0.026,-0.302,9.721,0,-0.001,0,1633,2021-01-15 18:59:29:884
-0.026,-0.302,9.721,0,-0.001,0,1637,2021-01-15 18:59:29:888
-0.026,-0.302,9.721,0,-0.001,0,1648,2021-01-15 18:59:29:899
-0.026,-0.302,9.721,0,-0.001,0,1657,2021-01-15 18:59:29:908
-0.029,-0.292,9.716,0,-0.001,0,1670,2021-01-15 18:59:29:921
-0.029,-0.292,9.716,0,-0.001,0,1678,2021-01-15 18:59:29:929
-0.029,-0.292,9.716,0,-0.001,0,1688,2021-01-15 18:59:29:939
-0.029,-0.292,9.716,0,-0.001,0.001,1709,2021-01-15 18:59:29:960
-0.029,-0.292,9.716,0,-0.001,0.001,1710,2021-01-15 18:59:29:961
-0.029,-0.292,9.716,0,-0.001,0.001,1717,2021-01-15 18:59:29:968
-0.012,-0.304,9.718,0,-0.001,0.001,1727,2021-01-15 18:59:29:978
-0.012,-0.304,9.718,0,-0.001,0.001,1741,2021-01-15 18:59:29:992
-0.012,-0.304,9.718,0,-0.001,0.001,1747,2021-01-15 18:59:29:998
-0.012,-0.304,9.718,0,-0.001,0.001,1760,2021-01-15 18:59:30:011
-0.012,-0.304,9.718,0,-0.001,0.001,1767,2021-01-15 18:59:30:018
-0.012,-0.304,9.718,0,-0.001,0.001,1777,2021-01-15 18:59:30:028
-0.014,-0.304,9.709,0,-0.001,0.001,1787,2021-01-15 18:59:30:038
-0.014,-0.304,9.709,0,-0.001,0.001,1798,2021-01-15 18:59:30:049
-0.014,-0.304,9.709,0,-0.001,0.001,1807,2021-01-15 18:59:30:058
-0.014,-0.304,9.709,0,-0.001,0.001,1817,2021-01-15 18:59:30:068
-0.014,-0.304,9.709,0,-0.001,0,1827,2021-01-15 18:59:30:078
-0.014,-0.304,9.709,0,-0.001,0,1838,2021-01-15 18:59:30:089
-0.024,-0.287,9.723,0,-0.001,0,1848,2021-01-15 18:59:30:099
-0.024,-0.287,9.723,0,-0.001,0,1857,2021-01-15 18:59:30:108
-0.024,-0.287,9.723,0,-0.001,0,1867,2021-01-15 18:59:30:118
-0.024,-0.287,9.723,0,-0.001,0,1877,2021-01-15 18:59:30:128
-0.024,-0.287,9.723,0,-0.001,0,1887,2021-01-15 18:59:30:138
-0.024,-0.287,9.723,0,-0.001,0,1898,2021-01-15 18:59:30:149
-0.01,-0.309,9.716,0,-0.001,0,1910,2021-01-15 18:59:30:161
-0.01,-0.309,9.716,0,-0.001,0,1917,2021-01-15 18:59:30:168
-0.01,-0.309,9.716,0,-0.001,0,1927,2021-01-15 18:59:30:178
-0.01,-0.309,9.716,0,-0.001,0,1937,2021-01-15 18:59:30:188
-0.01,-0.309,9.716,0,-0.001,0,1947,2021-01-15 18:59:30:198
-0.01,-0.309,9.716,0,-0.001,0,1957,2021-01-15 18:59:30:208
-0.012,-0.297,9.718,0,-0.001,0,1967,2021-01-15 18:59:30:218
-0.012,-0.297,9.718,0,-0.001,0,1978,2021-01-15 18:59:30:229
-0.012,-0.297,9.718,0,-0.001,0,1987,2021-01-15 18:59:30:238
-0.012,-0.297,9.718,0,-0.001,0,1997,2021-01-15 18:59:30:248
-0.012,-0.297,9.718,0,-0.001,0,2007,2021-01-15 18:59:30:258
-0.012,-0.297,9.718,0,-0.001,0,2017,2021-01-15 18:59:30:268
-0.01,-0.29,9.726,0,-0.001,0,2028,2021-01-15 18:59:30:279
-0.01,-0.29,9.726,0,-0.001,0,2037,2021-01-15 18:59:30:288
-0.01,-0.29,9.726,0,-0.001,0,2047,2021-01-15 18:59:30:298
-0.01,-0.29,9.726,0,-0.001,0,2058,2021-01-15 18:59:30:309
-0.01,-0.29,9.726,0,-0.001,0,2067,2021-01-15 18:59:30:318
-0.01,-0.29,9.726,0,0,0,2077,2021-01-15 18:59:30:328
-0.005,-0.304,9.728,0,0,0,2088,2021-01-15 18:59:30:339
-0.005,-0.304,9.728,0,0,0,2097,2021-01-15 18:59:30:348
-0.005,-0.304,9.728,0,0,0,2107,2021-01-15 18:59:30:358
-0.005,-0.304,9.728,0,0,0,2117,2021-01-15 18:59:30:368
-0.005,-0.304,9.728,0,0,0,2128,2021-01-15 18:59:30:379
-0.005,-0.304,9.728,0,0,0,2138,2021-01-15 18:59:30:389
-0.024,-0.299,9.709,0,0,0,2147,2021-01-15 18:59:30:398
-0.024,-0.299,9.709,0,0,0,2158,2021-01-15 18:59:30:409
-0.024,-0.299,9.709,0,0,0,2168,2021-01-15 18:59:30:419
-0.024,-0.299,9.709,0,0,0,2177,2021-01-15 18:59:30:428
-0.024,-0.299,9.709,0,-0.001,0,2191,2021-01-15 18:59:30:442
-0.024,-0.299,9.709,0,-0.001,0,2200,2021-01-15 18:59:30:451
-0.012,-0.299,9.723,0,-0.001,0,2207,2021-01-15 18:59:30:458
-0.012,-0.299,9.723,0,-0.001,0,2222,2021-01-15 18:59:30:473
-0.012,-0.299,9.723,0,-0.001,0,2228,2021-01-15 18:59:30:479
-0.012,-0.299,9.723,0,-0.001,0,2239,2021-01-15 18:59:30:490
-0.012,-0.299,9.723,0,-0.001,0,2247,2021-01-15 18:59:30:498
-0.012,-0.299,9.723,0,-0.001,0,2257,2021-01-15 18:59:30:508
-0.024,-0.316,9.74,0,-0.001,0,2267,2021-01-15 18:59:30:518
-0.024,-0.316,9.74,0,-0.001,0,2278,2021-01-15 18:59:30:529
-0.024,-0.316,9.74,0,-0.001,0,2288,2021-01-15 18:59:30:539
-0.024,-0.316,9.74,0,-0.001,0,2298,2021-01-15 18:59:30:549
-0.024,-0.316,9.74,0,-0.001,0,2307,2021-01-15 18:59:30:558
-0.024,-0.316,9.74,0,-0.001,0,2319,2021-01-15 18:59:30:570
-0.026,-0.294,9.73,0,-0.001,0,2327,2021-01-15 18:59:30:578
-0.026,-0.294,9.73,0,-0.001,0,2338,2021-01-15 18:59:30:589
-0.026,-0.294,9.73,0,-0.001,0,2347,2021-01-15 18:59:30:598
-0.026,-0.294,9.73,0,-0.001,0,2358,2021-01-15 18:59:30:609
-0.026,-0.294,9.73,0,-0.001,0,2369,2021-01-15 18:59:30:620
-0.026,-0.294,9.73,0,-0.001,0,2379,2021-01-15 18:59:30:630
-0.019,-0.304,9.704,0,-0.001,0,2388,2021-01-15 18:59:30:639
-0.019,-0.304,9.704,0,-0.001,0,2397,2021-01-15 18:59:30:648
-0.019,-0.304,9.704,0,-0.001,0,2407,2021-01-15 18:59:30:658
-0.019,-0.304,9.704,0,-0.001,0,2419,2021-01-15 18:59:30:670
-0.019,-0.304,9.704,0,-0.001,0,2428,2021-01-15 18:59:30:679
-0.019,-0.304,9.704,0,-0.001,0,2440,2021-01-15 18:59:30:691
-0.014,-0.292,9.718,0,-0.001,0,2447,2021-01-15 18:59:30:698
-0.014,-0.292,9.718,0,-0.001,0,2458,2021-01-15 18:59:30:709
-0.014,-0.292,9.718,0,-0.001,0,2468,2021-01-15 18:59:30:719
-0.014,-0.292,9.718,0,-0.001,0,2477,2021-01-15 18:59:30:728
-0.014,-0.292,9.718,0,-0.001,0,2495,2021-01-15 18:59:30:746
-0.014,-0.292,9.718,0,-0.001,0,2497,2021-01-15 18:59:30:748
-0.024,-0.304,9.728,0,-0.001,0,2507,2021-01-15 18:59:30:758
-0.024,-0.304,9.728,0,-0.001,0,2517,2021-01-15 18:59:30:768
-0.024,-0.304,9.728,0,-0.001,0,2528,2021-01-15 18:59:30:779
-0.024,-0.304,9.728,0,-0.001,0,2537,2021-01-15 18:59:30:788
-0.024,-0.304,9.728,0,-0.001,0,2547,2021-01-15 18:59:30:798
-0.024,-0.304,9.728,0,-0.001,0,2557,2021-01-15 18:59:30:808
-0.024,-0.292,9.716,0,-0.001,0,2570,2021-01-15 18:59:30:821
-0.024,-0.292,9.716,0,-0.001,0,2577,2021-01-15 18:59:30:828
-0.024,-0.292,9.716,0,-0.001,0,2587,2021-01-15 18:59:30:838
-0.024,-0.292,9.716,0,-0.001,0,2597,2021-01-15 18:59:30:848
-0.024,-0.292,9.716,0,-0.001,0,2607,2021-01-15 18:59:30:858
-0.024,-0.292,9.716,0,-0.001,0,2618,2021-01-15 18:59:30:869
-0.014,-0.302,9.714,0,-0.001,0,2629,2021-01-15 18:59:30:880
-0.014,-0.302,9.714,0,-0.001,0,2637,2021-01-15 18:59:30:888
-0.014,-0.302,9.714,0,-0.001,0,2647,2021-01-15 18:59:30:898
-0.014,-0.302,9.714,0,-0.001,0,2658,2021-01-15 18:59:30:909
-0.014,-0.302,9.714,0,-0.001,0,2667,2021-01-15 18:59:30:918
-0.014,-0.302,9.714,0,0,0,2678,2021-01-15 18:59:30:929
-0.014,-0.302,9.714,0,0,0,2688,2021-01-15 18:59:30:939
-0.022,-0.292,9.726,0,0,0,2698,2021-01-15 18:59:30:949
-0.022,-0.292,9.726,0,0,0,2714,2021-01-15 18:59:30:965
-0.022,-0.292,9.726,0,0,0,2722,2021-01-15 18:59:30:973
-0.022,-0.292,9.726,0,0,0,2728,2021-01-15 18:59:30:979
-0.022,-0.292,9.726,0,0,0,2739,2021-01-15 18:59:30:990
-0.005,-0.287,9.723,0,0,0,2747,2021-01-15 18:59:30:998
-0.005,-0.287,9.723,0,0,0,2758,2021-01-15 18:59:31:009
-0.005,-0.287,9.723,0,0,0,2767,2021-01-15 18:59:31:018
-0.005,-0.287,9.723,0,0,0,2779,2021-01-15 18:59:31:030
-0.005,-0.287,9.723,0,0,-0.001,2787,2021-01-15 18:59:31:038
-0.005,-0.287,9.723,0,0,-0.001,2797,2021-01-15 18:59:31:048
-0.005,-0.306,9.738,0,0,-0.001,2807,2021-01-15 18:59:31:058
-0.005,-0.306,9.738,0,0,-0.001,2821,2021-01-15 18:59:31:072
-0.005,-0.306,9.738,0,0,-0.001,2828,2021-01-15 18:59:31:079
-0.005,-0.306,9.738,0,0,-0.001,2839,2021-01-15 18:59:31:090
-0.005,-0.306,9.738,0,0,-0.001,2847,2021-01-15 18:59:31:098
-0.005,-0.306,9.738,0,0,-0.001,2857,2021-01-15 18:59:31:108
-0.019,-0.292,9.723,0,0,-0.001,2868,2021-01-15 18:59:31:119
-0.019,-0.292,9.723,0,0,-0.001,2878,2021-01-15 18:59:31:129
-0.019,-0.292,9.723,0,0,-0.001,2887,2021-01-15 18:59:31:138
-0.019,-0.292,9.723,0,0,-0.001,2897,2021-01-15 18:59:31:148
-0.019,-0.292,9.723,0,0,-0.001,2907,2021-01-15 18:59:31:158
-0.019,-0.306,9.726,0,-0.001,0,2926,2021-01-15 18:59:31:177
-0.019,-0.306,9.726,0,-0.001,0,2932,2021-01-15 18:59:31:183
-0.019,-0.306,9.726,0,-0.001,0,2937,2021-01-15 18:59:31:188
-0.019,-0.306,9.726,0,-0.001,0,2948,2021-01-15 18:59:31:199
-0.019,-0.306,9.726,0,-0.001,0,2957,2021-01-15 18:59:31:208
-0.019,-0.306,9.726,0,-0.001,0,2974,2021-01-15 18:59:31:225
-0.019,-0.306,9.726,0,-0.001,0,2977,2021-01-15 18:59:31:228
-0.024,-0.318,9.73,0,-0.001,0,2987,2021-01-15 18:59:31:238
-0.024,-0.318,9.73,0,-0.001,0,2997,2021-01-15 18:59:31:248
-0.024,-0.318,9.73,0,-0.001,0,3007,2021-01-15 18:59:31:258
-0.024,-0.318,9.73,0,-0.001,0,3018,2021-01-15 18:59:31:269
-0.024,-0.318,9.73,0,-0.001,0,3031,2021-01-15 18:59:31:282
-0.024,-0.318,9.73,0,-0.001,0,3039,2021-01-15 18:59:31:290
-0.017,-0.316,9.714,0,-0.001,0,3052,2021-01-15 18:59:31:303
-0.017,-0.316,9.714,0,-0.001,0,3060,2021-01-15 18:59:31:311
-0.017,-0.316,9.714,0,-0.001,0,3068,2021-01-15 18:59:31:319
-0.017,-0.316,9.714,0,-0.001,0,3078,2021-01-15 18:59:31:329
-0.017,-0.316,9.714,0,-0.001,0,3090,2021-01-15 18:59:31:341
-0.017,-0.316,9.714,0,-0.001,0,3097,2021-01-15 18:59:31:348
-0.017,-0.316,9.714,0,-0.001,0,3107,2021-01-15 18:59:31:358
-0.017,-0.316,9.714,0,-0.001,0,3117,2021-01-15 18:59:31:368
-0.026,-0.278,9.718,0,0,0,3129,2021-01-15 18:59:31:380
-0.026,-0.278,9.718,0,0,0,3139,2021-01-15 18:59:31:390
-0.026,-0.278,9.718,0,0,0,3147,2021-01-15 18:59:31:398
-0.026,-0.278,9.718,0,0,0,3157,2021-01-15 18:59:31:408
-0.026,-0.278,9.718,0,0,0,3168,2021-01-15 18:59:31:419
-0.026,-0.278,9.718,0,0,0,3177,2021-01-15 18:59:31:428
-0.022,-0.304,9.721,0,0,0,3187,2021-01-15 18:59:31:438
-0.022,-0.304,9.721,0,0,0,3198,2021-01-15 18:59:31:449
-0.022,-0.304,9.721,0,-0.001,0.001,3208,2021-01-15 18:59:31:459
-0.022,-0.304,9.721,0,-0.001,0.001,3218,2021-01-15 18:59:31:469
-0.022,-0.304,9.721,0,-0.001,0.001,3227,2021-01-15 18:59:31:478
-0.022,-0.304,9.721,0,-0.001,0.001,3237,2021-01-15 18:59:31:488
-0.019,-0.302,9.718,0,-0.001,0.001,3248,2021-01-15 18:59:31:499
-0.019,-0.302,9.718,0,-0.001,0.001,3258,2021-01-15 18:59:31:509
-0.019,-0.302,9.718,0,-0.001,0.001,3268,2021-01-15 18:59:31:519
-0.019,-0.302,9.718,0,-0.001,0.001,3278,2021-01-15 18:59:31:529
-0.019,-0.302,9.718,0,-0.001,0.001,3289,2021-01-15 18:59:31:540
-0.019,-0.302,9.718,0,-0.001,0.001,3297,2021-01-15 18:59:31:548
-0.024,-0.304,9.74,0,-0.001,0.001,3308,2021-01-15 18:59:31:559
-0.024,-0.304,9.74,0,-0.001,0.001,3319,2021-01-15 18:59:31:570
-0.024,-0.304,9.74,0,-0.001,0,3327,2021-01-15 18:59:31:578
-0.024,-0.304,9.74,0,-0.001,0,3337,2021-01-15 18:59:31:588
-0.024,-0.304,9.74,0,-0.001,0,3347,2021-01-15 18:59:31:598
-0.024,-0.304,9.74,0,-0.001,0,3357,2021-01-15 18:59:31:608
-0.019,-0.309,9.723,0,-0.001,0,3367,2021-01-15 18:59:31:618
-0.019,-0.309,9.723,0,-0.001,0,3377,2021-01-15 18:59:31:628
-0.019,-0.309,9.723,0,-0.001,0,3387,2021-01-15 18:59:31:638
-0.019,-0.309,9.723,0,-0.001,0,3397,2021-01-15 18:59:31:648
-0.019,-0.309,9.723,0,-0.001,0,3407,2021-01-15 18:59:31:658
-0.019,-0.309,9.723,0,-0.001,0,3417,2021-01-15 18:59:31:668
-0.002,-0.297,9.721,0,-0.001,0,3427,2021-01-15 18:59:31:678
-0.002,-0.297,9.721,0,-0.001,0,3438,2021-01-15 18:59:31:689
-0.002,-0.297,9.721,0,-0.001,0,3447,2021-01-15 18:59:31:698
-0.002,-0.297,9.721,0,-0.001,0,3458,2021-01-15 18:59:31:709
-0.002,-0.297,9.721,0,-0.001,0,3469,2021-01-15 18:59:31:720
-0.002,-0.297,9.721,0,-0.001,0,3478,2021-01-15 18:59:31:729
0.005,-0.302,9.726,0,-0.001,0,3488,2021-01-15 18:59:31:739
0.005,-0.302,9.726,0,-0.001,0,3498,2021-01-15 18:59:31:749
0.005,-0.302,9.726,0,-0.001,0,3508,2021-01-15 18:59:31:759
0.005,-0.302,9.726,0,-0.001,0,3518,2021-01-15 18:59:31:769
0.005,-0.302,9.726,0,-0.001,0,3527,2021-01-15 18:59:31:778
0.005,-0.302,9.726,0,-0.001,0,3538,2021-01-15 18:59:31:789
-0.024,-0.29,9.709,0,-0.001,0,3548,2021-01-15 18:59:31:799
-0.024,-0.29,9.709,0,-0.001,0,3557,2021-01-15 18:59:31:808
-0.024,-0.29,9.709,0,0,0,3568,2021-01-15 18:59:31:819
-0.024,-0.29,9.709,0,0,0,3578,2021-01-15 18:59:31:829
-0.024,-0.29,9.709,0,0,0,3587,2021-01-15 18:59:31:838
-0.024,-0.29,9.709,0,0,0,3599,2021-01-15 18:59:31:850
-0.031,-0.302,9.711,0,0,0,3607,2021-01-15 18:59:31:858
-0.031,-0.302,9.711,0,0,0,3617,2021-01-15 18:59:31:868
-0.031,-0.302,9.711,0,0,0,3628,2021-01-15 18:59:31:879
-0.031,-0.302,9.711,0,0,0,3637,2021-01-15 18:59:31:888
-0.031,-0.302,9.711,0,0,0,3647,2021-01-15 18:59:31:898
-0.031,-0.302,9.711,0,0,0,3657,2021-01-15 18:59:31:908
-0.017,-0.302,9.714,0,0,0,3668,2021-01-15 18:59:31:919
-0.017,-0.302,9.714,0,0,0,3677,2021-01-15 18:59:31:928
-0.017,-0.302,9.714,0,0,0,3687,2021-01-15 18:59:31:938
-0.017,-0.302,9.714,0,0,0,3697,2021-01-15 18:59:31:948
-0.017,-0.302,9.714,0,0,0,3707,2021-01-15 18:59:31:958
-0.017,-0.302,9.714,0,0,0,3717,2021-01-15 18:59:31:968
-0.024,-0.299,9.728,0,0,0,3727,2021-01-15 18:59:31:978
-0.024,-0.299,9.728,0,0,0,3737,2021-01-15 18:59:31:988
-0.024,-0.299,9.728,0,0,0,3748,2021-01-15 18:59:31:999
-0.024,-0.299,9.728,0,0,0,3758,2021-01-15 18:59:32:009
-0.024,-0.299,9.728,0,0,0,3767,2021-01-15 18:59:32:018
-0.024,-0.299,9.728,0,0,0,3777,2021-01-15 18:59:32:028
-0.01,-0.29,9.718,0,0,0,3788,2021-01-15 18:59:32:039
-0.01,-0.29,9.718,0,0,0,3797,2021-01-15 18:59:32:048
-0.01,-0.29,9.718,0,0,0,3808,2021-01-15 18:59:32:059
-0.01,-0.29,9.718,0,0,0,3817,2021-01-15 18:59:32:068
-0.01,-0.29,9.718,0,0,0,3827,2021-01-15 18:59:32:078
-0.01,-0.29,9.718,0,0,0,3838,2021-01-15 18:59:32:089
-0.017,-0.311,9.735,0,0,0,3848,2021-01-15 18:59:32:099
-0.017,-0.311,9.735,0,0,0,3857,2021-01-15 18:59:32:108
-0.017,-0.311,9.735,0,0,0,3867,2021-01-15 18:59:32:118
-0.017,-0.311,9.735,0,0,0,3877,2021-01-15 18:59:32:128
-0.017,-0.311,9.735,0,0,0,3887,2021-01-15 18:59:32:138
-0.017,-0.311,9.735,0,0,0,3897,2021-01-15 18:59:32:148
-0.017,-0.311,9.735,0,0,0,3908,2021-01-15 18:59:32:159
-0.019,-0.297,9.726,0,0,0,3917,2021-01-15 18:59:32:168
-0.019,-0.297,9.726,0,0,0,3927,2021-01-15 18:59:32:178
-0.019,-0.297,9.726,0,0,0,3938,2021-01-15 18:59:32:189
-0.019,-0.297,9.726,0,0,0,3947,2021-01-15 18:59:32:198
-0.019,-0.297,9.726,0,0,0,3957,2021-01-15 18:59:32:208
-0.026,-0.304,9.721,0,0,0,3967,2021-01-15 18:59:32:218
-0.026,-0.304,9.721,0,0,0,3980,2021-01-15 18:59:32:231
-0.026,-0.304,9.721,0,0,0,3988,2021-01-15 18:59:32:239
-0.026,-0.304,9.721,0,0,0,3998,2021-01-15 18:59:32:249
-0.026,-0.304,9.721,0,0,0,4009,2021-01-15 18:59:32:260
-0.026,-0.304,9.721,0,0,0,4017,2021-01-15 18:59:32:268
-0.022,-0.297,9.721,0,0,0,4028,2021-01-15 18:59:32:279
-0.022,-0.297,9.721,0,0,0,4040,2021-01-15 18:59:32:291
-0.022,-0.297,9.721,0,0,0,4048,2021-01-15 18:59:32:299
-0.022,-0.297,9.721,0,0,0,4057,2021-01-15 18:59:32:308
-0.022,-0.297,9.721,0,0,0,4067,2021-01-15 18:59:32:318
-0.022,-0.297,9.721,0,0,0,4078,2021-01-15 18:59:32:329
-0.022,-0.297,9.721,0,0,0,4088,2021-01-15 18:59:32:339
-0.019,-0.304,9.716,0,0,0,4097,2021-01-15 18:59:32:348
-0.019,-0.304,9.716,0,0,0,4108,2021-01-15 18:59:32:359
-0.019,-0.304,9.716,0,0,0,4124,2021-01-15 18:59:32:375
-0.019,-0.304,9.716,0,0,0,4130,2021-01-15 18:59:32:381
-0.019,-0.304,9.716,0,0,0,4138,2021-01-15 18:59:32:389
0.007,-0.283,9.733,0,0,0,4147,2021-01-15 18:59:32:398
0.007,-0.283,9.733,0,0,0,4158,2021-01-15 18:59:32:409
0.007,-0.283,9.733,0,0,0,4167,2021-01-15 18:59:32:418
0.007,-0.283,9.733,0,0,0,4178,2021-01-15 18:59:32:429
0.007,-0.283,9.733,0,0,0,4190,2021-01-15 18:59:32:441
0.007,-0.283,9.733,0,0,0,4198,2021-01-15 18:59:32:449
-0.019,-0.292,9.711,0,0,0,4207,2021-01-15 18:59:32:458
-0.019,-0.292,9.711,0,0,0,4219,2021-01-15 18:59:32:470
-0.019,-0.292,9.711,0,0,0,4230,2021-01-15 18:59:32:481
-0.019,-0.292,9.711,0,0,0,4237,2021-01-15 18:59:32:488
-0.019,-0.292,9.711,0,0,0,4248,2021-01-15 18:59:32:499
-0.019,-0.292,9.711,0,0,0,4258,2021-01-15 18:59:32:509
-0.014,-0.285,9.728,0,0,0,4267,2021-01-15 18:59:32:518
-0.014,-0.285,9.728,0,0,0,4281,2021-01-15 18:59:32:532
-0.014,-0.285,9.728,0,0,0,4292,2021-01-15 18:59:32:543
-0.014,-0.285,9.728,0,0,0,4297,2021-01-15 18:59:32:548
-0.014,-0.285,9.728,0,0,0,4307,2021-01-15 18:59:32:558
-0.014,-0.285,9.728,0,0,0,4317,2021-01-15 18:59:32:568
0,-0.309,9.723,0,0,0,4327,2021-01-15 18:59:32:578
0,-0.309,9.723,0,0,0,4337,2021-01-15 18:59:32:588
0,-0.309,9.723,0,0,0,4347,2021-01-15 18:59:32:598
0,-0.309,9.723,0,0,0,4358,2021-01-15 18:59:32:609
0,-0.309,9.723,0,0,0,4367,2021-01-15 18:59:32:618
0,-0.309,9.723,0,0,0,4377,2021-01-15 18:59:32:628
-0.01,-0.306,9.716,0,0,0,4388,2021-01-15 18:59:32:639
-0.01,-0.306,9.716,0,0,0,4397,2021-01-15 18:59:32:648
-0.01,-0.306,9.716,0,0,0,4407,2021-01-15 18:59:32:658
-0.01,-0.306,9.716,0,0,0,4417,2021-01-15 18:59:32:668
-0.01,-0.306,9.716,0,0,0,4427,2021-01-15 18:59:32:678
-0.01,-0.306,9.716,0,0,0,4437,2021-01-15 18:59:32:688
-0.024,-0.299,9.716,0,0,0,4447,2021-01-15 18:59:32:698
-0.024,-0.299,9.716,0,0,0,4459,2021-01-15 18:59:32:710
-0.024,-0.299,9.716,0,0,0,4468,2021-01-15 18:59:32:719
-0.024,-0.299,9.716,0,0,0,4477,2021-01-15 18:59:32:728
-0.024,-0.299,9.716,0,0,0,4487,2021-01-15 18:59:32:738
-0.024,-0.299,9.716,0,0,0,4497,2021-01-15 18:59:32:748
-0.002,-0.306,9.726,0,0,0,4507,2021-01-15 18:59:32:758
-0.002,-0.306,9.726,0,0,0,4517,2021-01-15 18:59:32:768
-0.002,-0.306,9.726,0,0,0,4528,2021-01-15 18:59:32:779
-0.002,-0.306,9.726,0,0,0,4537,2021-01-15 18:59:32:788
-0.002,-0.306,9.726,0,0,0,4549,2021-01-15 18:59:32:800
-0.002,-0.306,9.726,0,0,0,4557,2021-01-15 18:59:32:808
0,-0.316,9.723,0,0,0,4578,2021-01-15 18:59:32:829
0,-0.316,9.723,0,0,0,4580,2021-01-15 18:59:32:831
0,-0.316,9.723,0,0,0,4595,2021-01-15 18:59:32:846
0,-0.316,9.723,0,0,0,4597,2021-01-15 18:59:32:848
0,-0.316,9.723,0,0,0,4607,2021-01-15 18:59:32:858
0,-0.316,9.723,0,0,0,4617,2021-01-15 18:59:32:868
-0.012,-0.306,9.718,0,0,0,4628,2021-01-15 18:59:32:879
-0.012,-0.306,9.718,0,0,0,4638,2021-01-15 18:59:32:889
-0.012,-0.306,9.718,0,0,0,4647,2021-01-15 18:59:32:898
-0.012,-0.306,9.718,0,0,0,4657,2021-01-15 18:59:32:908
-0.012,-0.306,9.718,0,0,0,4667,2021-01-15 18:59:32:918
-0.012,-0.306,9.718,0,0,0,4678,2021-01-15 18:59:32:929
-0.01,-0.292,9.711,0,0,0,4687,2021-01-15 18:59:32:938
-0.01,-0.292,9.711,0,0,0,4697,2021-01-15 18:59:32:948
-0.01,-0.292,9.711,0,0,0,4707,2021-01-15 18:59:32:958
-0.01,-0.292,9.711,0,0,0,4717,2021-01-15 18:59:32:968
-0.01,-0.292,9.711,0,0,0,4727,2021-01-15 18:59:32:978
-0.01,-0.292,9.711,0,0,0,4737,2021-01-15 18:59:32:988
-0.024,-0.287,9.726,0,0,0,4748,2021-01-15 18:59:32:999
-0.024,-0.287,9.726,0,0,0,4757,2021-01-15 18:59:33:008
-0.024,-0.287,9.726,0,0,0,4768,2021-01-15 18:59:33:019
-0.024,-0.287,9.726,0,0,0,4777,2021-01-15 18:59:33:028
-0.024,-0.287,9.726,0,0,0,4787,2021-01-15 18:59:33:038
-0.024,-0.287,9.726,0,0,0,4797,2021-01-15 18:59:33:048
-0.012,-0.304,9.711,0,0,0,4807,2021-01-15 18:59:33:058
-0.012,-0.304,9.711,0,0,0,4817,2021-01-15 18:59:33:068
-0.012,-0.304,9.711,0,0,0,4827,2021-01-15 18:59:33:078
-0.012,-0.304,9.711,0,0,0,4837,2021-01-15 18:59:33:088
-0.012,-0.304,9.711,0,0,0,4848,2021-01-15 18:59:33:099
-0.012,-0.304,9.711,0,0,0,4857,2021-01-15 18:59:33:108
-0.012,-0.306,9.716,0,0,0,4867,2021-01-15 18:59:33:118
-0.012,-0.306,9.716,0,0,0,4877,2021-01-15 18:59:33:128
-0.012,-0.306,9.716,0,0,0,4889,2021-01-15 18:59:33:140
-0.012,-0.306,9.716,0,0,0,4897,2021-01-15 18:59:33:148
-0.012,-0.306,9.716,0,0,0,4909,2021-01-15 18:59:33:160
-0.012,-0.306,9.716,0,0,0,4917,2021-01-15 18:59:33:168
0,-0.304,9.716,0,0,0,4929,2021-01-15 18:59:33:180
0,-0.304,9.716,0,0,0,4938,2021-01-15 18:59:33:189
0,-0.304,9.716,0,0,0,4947,2021-01-15 18:59:33:198
0,-0.304,9.716,0,0,0,4959,2021-01-15 18:59:33:210
0,-0.304,9.716,0,0,0,4970,2021-01-15 18:59:33:221
0,-0.304,9.716,0,0,0,4977,2021-01-15 18:59:33:228
-0.022,-0.304,9.697,0,0,0,4988,2021-01-15 18:59:33:239
-0.022,-0.304,9.697,0,0,0,4997,2021-01-15 18:59:33:248
-0.022,-0.304,9.697,0,0,0,5007,2021-01-15 18:59:33:258
-0.022,-0.304,9.697,0,0,0,5017,2021-01-15 18:59:33:268
-0.022,-0.304,9.697,0,0,0,5027,2021-01-15 18:59:33:278
-0.022,-0.304,9.697,0,0,0,5038,2021-01-15 18:59:33:289
-0.017,-0.302,9.73,0,0,0,5048,2021-01-15 18:59:33:299
-0.017,-0.302,9.73,0,0,0,5057,2021-01-15 18:59:33:308
-0.017,-0.302,9.73,0,0,0,5068,2021-01-15 18:59:33:319
-0.017,-0.302,9.73,0,0,0,5077,2021-01-15 18:59:33:328
-0.017,-0.302,9.73,0,0,0,5087,2021-01-15 18:59:33:338
-0.017,-0.302,9.73,0,0,0,5097,2021-01-15 18:59:33:348
-0.017,-0.302,9.73,0,0,0,5107,2021-01-15 18:59:33:358
0,-0.294,9.721,0,0,0,5117,2021-01-15 18:59:33:368
0,-0.294,9.721,0,0,0,5130,2021-01-15 18:59:33:381
0,-0.294,9.721,0,0,0,5137,2021-01-15 18:59:33:388
0,-0.294,9.721,0,0,0,5147,2021-01-15 18:59:33:398
0,-0.294,9.721,0,0,0,5157,2021-01-15 18:59:33:408
-0.017,-0.304,9.721,0,0,0,5167,2021-01-15 18:59:33:418
-0.017,-0.304,9.721,0,0,0,5179,2021-01-15 18:59:33:430
-0.017,-0.304,9.721,0,0,0,5187,2021-01-15 18:59:33:438
-0.017,-0.304,9.721,0,0,0,5197,2021-01-15 18:59:33:448
-0.017,-0.304,9.721,0,0,0,5209,2021-01-15 18:59:33:460
-0.017,-0.304,9.721,0,0,0,5217,2021-01-15 18:59:33:468
-0.022,-0.302,9.704,0,0,0,5227,2021-01-15 18:59:33:478
-0.022,-0.302,9.704,0,0,0,5238,2021-01-15 18:59:33:489
-0.022,-0.302,9.704,0,-0.001,0,5248,2021-01-15 18:59:33:499
-0.022,-0.302,9.704,0,-0.001,0,5258,2021-01-15 18:59:33:509
-0.022,-0.302,9.704,0,-0.001,0,5267,2021-01-15 18:59:33:518
-0.002,-0.311,9.728,0,-0.001,0,5284,2021-01-15 18:59:33:535
-0.002,-0.311,9.728,0,-0.001,0,5288,2021-01-15 18:59:33:539
-0.002,-0.311,9.728,0,-0.001,0,5300,2021-01-15 18:59:33:551
-0.002,-0.311,9.728,0,-0.001,0,5307,2021-01-15 18:59:33:558
-0.002,-0.311,9.728,0,-0.001,0,5317,2021-01-15 18:59:33:568
-0.002,-0.311,9.728,0,-0.001,0,5329,2021-01-15 18:59:33:580
-0.002,-0.311,9.728,0,-0.001,0,5338,2021-01-15 18:59:33:589
-0.029,-0.297,9.716,0,-0.001,0,5347,2021-01-15 18:59:33:598
-0.029,-0.297,9.716,0,-0.001,0,5357,2021-01-15 18:59:33:608
-0.029,-0.297,9.716,0,-0.001,0,5367,2021-01-15 18:59:33:618
-0.029,-0.297,9.716,0,-0.001,0,5377,2021-01-15 18:59:33:628
-0.029,-0.297,9.716,0,-0.001,0,5387,2021-01-15 18:59:33:638
-0.029,-0.297,9.716,0,-0.001,0,5397,2021-01-15 18:59:33:648
-0.019,-0.309,9.728,0,-0.001,0,5408,2021-01-15 18:59:33:659
-0.019,-0.309,9.728,0,-0.001,0,5417,2021-01-15 18:59:33:668
-0.019,-0.309,9.728,0,-0.001,0,5427,2021-01-15 18:59:33:678
-0.019,-0.309,9.728,0,-0.001,0,5438,2021-01-15 18:59:33:689
-0.019,-0.309,9.728,0,-0.001,0,5447,2021-01-15 18:59:33:698
-0.019,-0.309,9.728,0,-0.001,0,5457,2021-01-15 18:59:33:708
-0.017,-0.29,9.733,0,-0.001,0,5467,2021-01-15 18:59:33:718
-0.017,-0.29,9.733,0,-0.001,0,5479,2021-01-15 18:59:33:730
-0.017,-0.29,9.733,0,0,0,5493,2021-01-15 18:59:33:744
-0.017,-0.29,9.733,0,0,0,5497,2021-01-15 18:59:33:748
-0.017,-0.29,9.733,0,0,0,5508,2021-01-15 18:59:33:759
-0.017,-0.29,9.733,0,0,0,5518,2021-01-15 18:59:33:769
-0.031,-0.304,9.728,0,0,0,5530,2021-01-15 18:59:33:781
-0.031,-0.304,9.728,0,0,0,5537,2021-01-15 18:59:33:788
-0.031,-0.304,9.728,0,0,0,5548,2021-01-15 18:59:33:799
-0.031,-0.304,9.728,0,0,0,5557,2021-01-15 18:59:33:808
-0.031,-0.304,9.728,0,0,0,5567,2021-01-15 18:59:33:818
-0.014,-0.306,9.723,0,0,0,5585,2021-01-15 18:59:33:836
-0.014,-0.306,9.723,0,0,0,5590,2021-01-15 18:59:33:841
-0.014,-0.306,9.723,0,0,0,5598,2021-01-15 18:59:33:849
-0.014,-0.306,9.723,0,0,0,5609,2021-01-15 18:59:33:860
-0.014,-0.306,9.723,0,-0.001,0,5617,2021-01-15 18:59:33:868
-0.014,-0.306,9.723,0,-0.001,0,5627,2021-01-15 18:59:33:878
-0.014,-0.306,9.723,0,-0.001,0,5637,2021-01-15 18:59:33:888
-0.024,-0.306,9.726,0,-0.001,0,5650,2021-01-15 18:59:33:901
-0.024,-0.306,9.726,0,-0.001,0,5657,2021-01-15 18:59:33:908
-0.024,-0.306,9.726,0,-0.001,0,5668,2021-01-15 18:59:33:919
-0.024,-0.306,9.726,0,-0.001,0,5677,2021-01-15 18:59:33:928
-0.024,-0.306,9.726,0,-0.001,0,5687,2021-01-15 18:59:33:938
-0.024,-0.306,9.726,0,-0.001,0,5697,2021-01-15 18:59:33:948
-0.007,-0.297,9.692,0,-0.001,0,5710,2021-01-15 18:59:33:961
-0.007,-0.297,9.692,0,-0.001,0,5718,2021-01-15 18:59:33:969
-0.007,-0.297,9.692,0,0,0,5727,2021-01-15 18:59:33:978
-0.007,-0.297,9.692,0,0,0,5738,2021-01-15 18:59:33:989
-0.007,-0.297,9.692,0,0,0,5747,2021-01-15 18:59:33:998
-0.007,-0.297,9.692,0,0,0,5760,2021-01-15 18:59:34:011
-0.014,-0.304,9.73,0,0,0,5769,2021-01-15 18:59:34:020
-0.014,-0.304,9.73,0,0,0,5781,2021-01-15 18:59:34:032
-0.014,-0.304,9.73,0,0,0,5787,2021-01-15 18:59:34:038
-0.014,-0.304,9.73,0,0,0,5797,2021-01-15 18:59:34:048
-0.014,-0.304,9.73,0,0,0,5809,2021-01-15 18:59:34:060
-0.014,-0.304,9.73,0,0,0,5817,2021-01-15 18:59:34:068
-0.022,-0.309,9.716,0,0,0,5827,2021-01-15 18:59:34:078
-0.022,-0.309,9.716,0,0,0,5837,2021-01-15 18:59:34:088
-0.022,-0.309,9.716,0,-0.001,0,5848,2021-01-15 18:59:34:099
-0.022,-0.309,9.716,0,-0.001,0,5858,2021-01-15 18:59:34:109
-0.022,-0.309,9.716,0,-0.001,0,5868,2021-01-15 18:59:34:119
-0.022,-0.309,9.716,0,-0.001,0,5877,2021-01-15 18:59:34:128
-0.012,-0.311,9.723,0,-0.001,0,5887,2021-01-15 18:59:34:138
-0.012,-0.311,9.723,0,-0.001,0,5897,2021-01-15 18:59:34:148
-0.012,-0.311,9.723,0,-0.001,0,5907,2021-01-15 18:59:34:158
-0.012,-0.311,9.723,0,-0.001,0,5917,2021-01-15 18:59:34:168
-0.012,-0.311,9.723,0,-0.001,0,5927,2021-01-15 18:59:34:178
-0.012,-0.311,9.723,0,-0.001,0,5937,2021-01-15 18:59:34:188
-0.012,-0.294,9.706,0,-0.001,0,5947,2021-01-15 18:59:34:198
-0.012,-0.294,9.706,0,-0.001,0,5957,2021-01-15 18:59:34:208
-0.012,-0.294,9.706,0,0,0,5967,2021-01-15 18:59:34:218
-0.012,-0.294,9.706,0,0,0,5978,2021-01-15 18:59:34:229
-0.012,-0.294,9.706,0,0,0,5987,2021-01-15 18:59:34:238
-0.012,-0.294,9.706,0,0,0,5999,2021-01-15 18:59:34:250
-0.017,-0.309,9.714,0,0,0,6010,2021-01-15 18:59:34:261
-0.017,-0.309,9.714,0,0,0,6017,2021-01-15 18:59:34:268
-0.017,-0.309,9.714,0,0,0,6029,2021-01-15 18:59:34:280
-0.017,-0.309,9.714,0,0,0,6037,2021-01-15 18:59:34:288
-0.017,-0.309,9.714,0,0,0,6048,2021-01-15 18:59:34:299
-0.017,-0.309,9.714,0,0,0,6057,2021-01-15 18:59:34:308
-0.026,-0.297,9.735,0,0,0,6069,2021-01-15 18:59:34:320
-0.026,-0.297,9.735,0,0,0,6077,2021-01-15 18:59:34:328
-0.026,-0.297,9.735,0,0,0,6087,2021-01-15 18:59:34:338
-0.026,-0.297,9.735,0,0,0,6098,2021-01-15 18:59:34:349
-0.026,-0.297,9.735,0,0,0,6107,2021-01-15 18:59:34:358
-0.026,-0.297,9.735,0,0,0,6117,2021-01-15 18:59:34:368
-0.019,-0.321,9.726,0,0,0,6127,2021-01-15 18:59:34:378
-0.019,-0.321,9.726,0,0,0,6137,2021-01-15 18:59:34:388
-0.019,-0.321,9.726,0,0,0,6147,2021-01-15 18:59:34:398
-0.019,-0.321,9.726,0,0,0,6157,2021-01-15 18:59:34:408
-0.019,-0.321,9.726,0,0,0,6167,2021-01-15 18:59:34:418
-0.019,-0.321,9.726,0,0,0,6178,2021-01-15 18:59:34:429
-0.012,-0.299,9.735,0,0,0,6187,2021-01-15 18:59:34:438
-0.012,-0.299,9.735,0,0,0,6197,2021-01-15 18:59:34:448
-0.012,-0.299,9.735,0,-0.001,0,6207,2021-01-15 18:59:34:458
-0.012,-0.299,9.735,0,-0.001,0,6217,2021-01-15 18:59:34:468
-0.012,-0.299,9.735,0,-0.001,0,6227,2021-01-15 18:59:34:478
-0.012,-0.299,9.735,0,-0.001,0,6237,2021-01-15 18:59:34:488
-0.014,-0.311,9.735,0,-0.001,0,6247,2021-01-15 18:59:34:498
-0.014,-0.311,9.735,0,-0.001,0,6257,2021-01-15 18:59:34:508
-0.014,-0.311,9.735,0,-0.001,0,6269,2021-01-15 18:59:34:520
-0.014,-0.311,9.735,0,-0.001,0,6277,2021-01-15 18:59:34:528
-0.014,-0.311,9.735,0,-0.001,0,6287,2021-01-15 18:59:34:538
-0.014,-0.311,9.735,0,-0.001,0,6297,2021-01-15 18:59:34:548
-0.01,-0.299,9.733,0,-0.001,0,6310,2021-01-15 18:59:34:561
-0.01,-0.299,9.733,0,-0.001,0,6318,2021-01-15 18:59:34:569
-0.01,-0.299,9.733,0,-0.001,0,6328,2021-01-15 18:59:34:579
-0.01,-0.299,9.733,0,-0.001,0,6337,2021-01-15 18:59:34:588
-0.01,-0.299,9.733,0,-0.001,0,6347,2021-01-15 18:59:34:598
-0.01,-0.299,9.733,0,-0.001,0,6357,2021-01-15 18:59:34:608
-0.01,-0.287,9.726,0,-0.001,0,6367,2021-01-15 18:59:34:618
-0.01,-0.287,9.726,0,-0.001,0,6377,2021-01-15 18:59:34:628
-0.01,-0.287,9.726,0,-0.001,0,6389,2021-01-15 18:59:34:640
-0.01,-0.287,9.726,0,-0.001,0,6398,2021-01-15 18:59:34:649
-0.01,-0.287,9.726,0,-0.001,0,6407,2021-01-15 18:59:34:658
-0.01,-0.287,9.726,0,-0.001,0,6417,2021-01-15 18:59:34:668
-0.019,-0.299,9.709,0,-0.001,0,6428,2021-01-15 18:59:34:679
-0.019,-0.299,9.709,0,-0.001,0,6437,2021-01-15 18:59:34:688
-0.019,-0.299,9.709,0,0,0,6451,2021-01-15 18:59:34:702
-0.019,-0.299,9.709,0,0,0,6457,2021-01-15 18:59:34:708
-0.019,-0.299,9.709,0,0,0,6467,2021-01-15 18:59:34:718
-0.019,-0.299,9.709,0,0,0,6483,2021-01-15 18:59:34:734
-0.005,-0.297,9.718,0,0,0,6487,2021-01-15 18:59:34:738
-0.005,-0.297,9.718,0,0,0,6498,2021-01-15 18:59:34:749
-0.005,-0.297,9.718,0,0,0,6507,2021-01-15 18:59:34:758
-0.005,-0.297,9.718,0,0,0,6517,2021-01-15 18:59:34:768
-0.005,-0.297,9.718,0,0,0,6527,2021-01-15 18:59:34:778
-0.005,-0.297,9.718,0,0,0,6538,2021-01-15 18:59:34:789
-0.024,-0.294,9.723,0,0,0,6549,2021-01-15 18:59:34:800
-0.024,-0.294,9.723,0,0,0,6557,2021-01-15 18:59:34:808
-0.024,-0.294,9.723,0,0,0,6567,2021-01-15 18:59:34:818
-0.024,-0.294,9.723,0,0,0,6577,2021-01-15 18:59:34:828
-0.024,-0.294,9.723,0,0,0,6587,2021-01-15 18:59:34:838
-0.024,-0.294,9.723,0,0,0,6600,2021-01-15 18:59:34:851
-0.026,-0.314,9.742,0,0,0,6607,2021-01-15 18:59:34:858
-0.026,-0.314,9.742,0,0,0,6619,2021-01-15 18:59:34:870
-0.026,-0.314,9.742,0,0,0,6627,2021-01-15 18:59:34:878
-0.026,-0.314,9.742,0,0,0,6637,2021-01-15 18:59:34:888
-0.026,-0.314,9.742,0,0,0,6647,2021-01-15 18:59:34:898
-0.026,-0.314,9.742,0,0,0,6657,2021-01-15 18:59:34:908
-0.026,-0.306,9.73,0,0,0,6667,2021-01-15 18:59:34:918
-0.026,-0.306,9.73,0,0,0,6677,2021-01-15 18:59:34:928
-0.026,-0.306,9.73,0,0,0,6687,2021-01-15 18:59:34:938
-0.026,-0.306,9.73,0,0,0,6697,2021-01-15 18:59:34:948
-0.026,-0.306,9.73,0,0,0,6708,2021-01-15 18:59:34:959
-0.026,-0.306,9.73,0,0,0,6717,2021-01-15 18:59:34:968
-0.002,-0.318,9.738,0,0,0,6727,2021-01-15 18:59:34:978
-0.002,-0.318,9.738,0,0,0,6737,2021-01-15 18:59:34:988
-0.002,-0.318,9.738,0,0,0,6747,2021-01-15 18:59:34:998
-0.002,-0.318,9.738,0,0,0,6756,2021-01-15 18:59:35:007
-0.002,-0.318,9.738,0,0,0,6767,2021-01-15 18:59:35:018
-0.002,-0.318,9.738,0,0,0,6777,2021-01-15 18:59:35:028
-0.014,-0.292,9.745,0,0,0,6787,2021-01-15 18:59:35:038
-0.014,-0.292,9.745,0,0,0,6797,2021-01-15 18:59:35:048
-0.014,-0.292,9.745,0,0,0,6807,2021-01-15 18:59:35:058
-0.014,-0.292,9.745,0,0,0,6817,2021-01-15 18:59:35:068
-0.014,-0.292,9.745,0,0,0,6826,2021-01-15 18:59:35:077
-0.014,-0.292,9.745,0,0,0,6837,2021-01-15 18:59:35:088
-0.002,-0.323,9.706,0,0,0,6847,2021-01-15 18:59:35:098
-0.002,-0.323,9.706,0,0,0,6857,2021-01-15 18:59:35:108
-0.002,-0.323,9.706,0,0,0,6867,2021-01-15 18:59:35:118
-0.002,-0.323,9.706,0,0,0,6877,2021-01-15 18:59:35:128
-0.002,-0.323,9.706,0,0,0,6887,2021-01-15 18:59:35:138
-0.002,-0.323,9.706,0,0,0,6897,2021-01-15 18:59:35:148
-0.014,-0.304,9.754,0,0,0,6907,2021-01-15 18:59:35:158
-0.014,-0.304,9.754,0,0,0,6917,2021-01-15 18:59:35:168
-0.014,-0.304,9.754,0,0,0,6927,2021-01-15 18:59:35:178
-0.014,-0.304,9.754,0,0,0,6937,2021-01-15 18:59:35:188
-0.014,-0.304,9.754,0,0,0,6947,2021-01-15 18:59:35:198
-0.014,-0.304,9.754,0,0,0,6958,2021-01-15 18:59:35:209
-0.026,-0.297,9.742,0,0,0,6967,2021-01-15 18:59:35:218
-0.026,-0.297,9.742,0,0,0,6980,2021-01-15 18:59:35:231
-0.026,-0.297,9.742,0,0,0,6987,2021-01-15 18:59:35:238
-0.026,-0.297,9.742,0,0,0,6997,2021-01-15 18:59:35:248
-0.026,-0.297,9.742,0,0,0,7007,2021-01-15 18:59:35:258
-0.026,-0.297,9.742,0,0,0,7017,2021-01-15 18:59:35:268
-0.017,-0.311,9.723,0,0,0,7027,2021-01-15 18:59:35:278
-0.017,-0.311,9.723,0,0,0,7037,2021-01-15 18:59:35:288
-0.017,-0.311,9.723,0,-0.001,0,7047,2021-01-15 18:59:35:298
-0.017,-0.311,9.723,0,-0.001,0,7057,2021-01-15 18:59:35:308
-0.017,-0.311,9.723,0,-0.001,0,7067,2021-01-15 18:59:35:318
-0.017,-0.311,9.723,0,-0.001,0,7077,2021-01-15 18:59:35:328
-0.014,-0.311,9.735,0,-0.001,0,7087,2021-01-15 18:59:35:338
-0.014,-0.311,9.735,0,-0.001,0,7097,2021-01-15 18:59:35:348
-0.014,-0.311,9.735,0,-0.001,0,7107,2021-01-15 18:59:35:358
-0.014,-0.311,9.735,0,-0.001,0,7117,2021-01-15 18:59:35:368
-0.014,-0.311,9.735,0,-0.001,0,7127,2021-01-15 18:59:35:378
-0.014,-0.311,9.735,0,-0.001,0,7137,2021-01-15 18:59:35:388
-0.014,-0.311,9.754,0,-0.001,0,7147,2021-01-15 18:59:35:398
-0.014,-0.311,9.754,0,-0.001,0,7157,2021-01-15 18:59:35:408
-0.014,-0.311,9.754,0,0,0,7169,2021-01-15 18:59:35:420
-0.014,-0.311,9.754,0,0,0,7177,2021-01-15 18:59:35:428
-0.014,-0.311,9.754,0,0,0,7187,2021-01-15 18:59:35:438
-0.014,-0.311,9.754,0,0,0,7197,2021-01-15 18:59:35:448
-0.014,-0.321,9.709,0,0,0,7208,2021-01-15 18:59:35:459
-0.014,-0.321,9.709,0,0,0,7219,2021-01-15 18:59:35:470
-0.014,-0.321,9.709,0,0,0,7228,2021-01-15 18:59:35:479
-0.014,-0.321,9.709,0,0,0,7237,2021-01-15 18:59:35:488
-0.014,-0.321,9.709,0,0,0,7248,2021-01-15 18:59:35:499
-0.014,-0.321,9.709,0,0,0,7257,2021-01-15 18:59:35:508
-0.014,-0.297,9.749,0,0,0,7267,2021-01-15 18:59:35:518
-0.014,-0.297,9.749,0,0,0,7278,2021-01-15 18:59:35:529
-0.014,-0.297,9.749,0,0,0,7287,2021-01-15 18:59:35:538
-0.014,-0.297,9.749,0,0,0,7297,2021-01-15 18:59:35:548
-0.014,-0.297,9.749,0,0,0,7307,2021-01-15 18:59:35:558
-0.014,-0.297,9.749,0,0,0,7317,2021-01-15 18:59:35:568
-0.007,-0.294,9.73,0,0,0,7327,2021-01-15 18:59:35:578
-0.007,-0.294,9.73,0,0,0,7337,2021-01-15 18:59:35:588
-0.007,-0.294,9.73,0,0,0,7347,2021-01-15 18:59:35:598
-0.007,-0.294,9.73,0,0,0,7357,2021-01-15 18:59:35:608
-0.007,-0.294,9.73,0,0,0,7367,2021-01-15 18:59:35:618
-0.007,-0.294,9.73,0,0,0,7377,2021-01-15 18:59:35:628
-0.019,-0.297,9.721,0,0,0,7387,2021-01-15 18:59:35:638
-0.019,-0.297,9.721,0,0,0,7397,2021-01-15 18:59:35:648
-0.019,-0.297,9.721,0,0,0,7407,2021-01-15 18:59:35:658
-0.019,-0.297,9.721,0,0,0,7417,2021-01-15 18:59:35:668
-0.019,-0.297,9.721,0,0,0,7427,2021-01-15 18:59:35:678
-0.019,-0.297,9.721,0,0,0,7437,2021-01-15 18:59:35:688
-0.01,-0.302,9.721,0,0,0,7447,2021-01-15 18:59:35:698
-0.01,-0.302,9.721,0,0,0,7457,2021-01-15 18:59:35:708
-0.01,-0.302,9.721,0,0,0,7467,2021-01-15 18:59:35:718
-0.01,-0.302,9.721,0,0,0,7476,2021-01-15 18:59:35:727
-0.01,-0.302,9.721,0,0,0,7487,2021-01-15 18:59:35:738
-0.01,-0.302,9.721,0,0,0,7497,2021-01-15 18:59:35:748
-0.024,-0.304,9.718,0,0,0,7507,2021-01-15 18:59:35:758
-0.024,-0.304,9.718,0,0,0,7517,2021-01-15 18:59:35:768
-0.024,-0.304,9.718,0,0.001,0,7527,2021-01-15 18:59:35:778
-0.024,-0.304,9.718,0,0.001,0,7537,2021-01-15 18:59:35:788
-0.024,-0.304,9.718,0,0.001,0,7548,2021-01-15 18:59:35:799
-0.024,-0.304,9.718,0,0.001,0,7557,2021-01-15 18:59:35:808
-0.022,-0.311,9.726,0,0.001,0,7567,2021-01-15 18:59:35:818
-0.022,-0.311,9.726,0,0.001,0,7577,2021-01-15 18:59:35:828
-0.022,-0.311,9.726,0,0.001,0,7587,2021-01-15 18:59:35:838
-0.022,-0.311,9.726,0,0.001,0,7597,2021-01-15 18:59:35:848
-0.022,-0.311,9.726,0,0.001,0,7607,2021-01-15 18:59:35:858
-0.022,-0.311,9.726,0,0.001,0,7617,2021-01-15 18:59:35:868
-0.01,-0.314,9.747,0,0.001,0,7627,2021-01-15 18:59:35:878
-0.01,-0.314,9.747,0,0.001,0,7637,2021-01-15 18:59:35:888
-0.01,-0.314,9.747,0,0,0,7647,2021-01-15 18:59:35:898
-0.01,-0.314,9.747,0,0,0,7657,2021-01-15 18:59:35:908
-0.01,-0.314,9.747,0,0,0,7668,2021-01-15 18:59:35:919
-0.01,-0.314,9.747,0,0,0,7677,2021-01-15 18:59:35:928
-0.031,-0.297,9.714,0,0,0,7687,2021-01-15 18:59:35:938
-0.031,-0.297,9.714,0,0,0,7697,2021-01-15 18:59:35:948
-0.031,-0.297,9.714,0,0,0,7707,2021-01-15 18:59:35:958
-0.031,-0.297,9.714,0,0,0,7717,2021-01-15 18:59:35:968
-0.031,-0.297,9.714,0,0,0,7727,2021-01-15 18:59:35:978
-0.031,-0.297,9.714,0,0,0,7737,2021-01-15 18:59:35:988
-0.031,-0.304,9.73,0,0,0,7747,2021-01-15 18:59:35:998
-0.031,-0.304,9.73,0,0,0,7757,2021-01-15 18:59:36:008
-0.031,-0.304,9.73,0,0.001,0,7769,2021-01-15 18:59:36:020
-0.031,-0.304,9.73,0,0.001,0,7779,2021-01-15 18:59:36:030
-0.031,-0.304,9.73,0,0.001,0,7787,2021-01-15 18:59:36:038
-0.031,-0.304,9.73,0,0.001,0,7798,2021-01-15 18:59:36:049
-0.019,-0.302,9.721,0,0.001,0,7807,2021-01-15 18:59:36:058
-0.019,-0.302,9.721,0,0.001,0,7821,2021-01-15 18:59:36:072
-0.019,-0.302,9.721,0,0.001,0,7827,2021-01-15 18:59:36:078
-0.019,-0.302,9.721,0,0.001,0,7837,2021-01-15 18:59:36:088
-0.019,-0.302,9.721,0,0.001,0,7847,2021-01-15 18:59:36:098
-0.019,-0.302,9.721,0,0.001,0,7857,2021-01-15 18:59:36:108
-0.005,-0.309,9.716,0,0.001,0,7868,2021-01-15 18:59:36:119
-0.005,-0.309,9.716,0,0.001,0,7881,2021-01-15 18:59:36:132
-0.005,-0.309,9.716,0,0,0,7888,2021-01-15 18:59:36:139
-0.005,-0.309,9.716,0,0,0,7904,2021-01-15 18:59:36:155
-0.005,-0.309,9.716,0,0,0,7907,2021-01-15 18:59:36:158
-0.005,-0.309,9.716,0,0,0,7917,2021-01-15 18:59:36:168
-0.012,-0.297,9.726,0,0,0,7927,2021-01-15 18:59:36:178
-0.012,-0.297,9.726,0,0,0,7945,2021-01-15 18:59:36:196
-0.012,-0.297,9.726,0,0,0,7947,2021-01-15 18:59:36:198
-0.012,-0.297,9.726,0,0,0,7957,2021-01-15 18:59:36:208
-0.012,-0.297,9.726,0,0,0,7968,2021-01-15 18:59:36:219
-0.012,-0.297,9.726,0,0,0,7977,2021-01-15 18:59:36:228
-0.022,-0.306,9.742,0,0,0,7987,2021-01-15 18:59:36:238
-0.022,-0.306,9.742,0,0,0,7997,2021-01-15 18:59:36:248
-0.022,-0.306,9.742,0,0,0,8007,2021-01-15 18:59:36:258
-0.022,-0.306,9.742,0,0,0,8017,2021-01-15 18:59:36:268
-0.022,-0.306,9.742,0,0,0,8028,2021-01-15 18:59:36:279
-0.022,-0.306,9.742,0,0,0,8038,2021-01-15 18:59:36:289
-0.029,-0.314,9.726,0,0,0,8050,2021-01-15 18:59:36:301
-0.029,-0.314,9.726,0,0,0,8057,2021-01-15 18:59:36:308
-0.029,-0.314,9.726,0,0,0,8068,2021-01-15 18:59:36:319
-0.029,-0.314,9.726,0,0,0,8078,2021-01-15 18:59:36:329
-0.029,-0.314,9.726,0,0,0,8087,2021-01-15 18:59:36:338
-0.029,-0.314,9.726,0,0,0,8097,2021-01-15 18:59:36:348
-0.01,-0.299,9.711,0,0,0,8107,2021-01-15 18:59:36:358
-0.01,-0.299,9.711,0,0,0,8117,2021-01-15 18:59:36:368
-0.01,-0.299,9.711,0,0,0,8130,2021-01-15 18:59:36:381
-0.01,-0.299,9.711,0,0,0,8137,2021-01-15 18:59:36:388
-0.01,-0.299,9.711,0,0,0,8147,2021-01-15 18:59:36:398
-0.01,-0.299,9.711,0,0,0,8157,2021-01-15 18:59:36:408
0,-0.292,9.711,0,0,0,8167,2021-01-15 18:59:36:418
0,-0.292,9.711,0,0,0,8177,2021-01-15 18:59:36:428
0,-0.292,9.711,0,0,0,8187,2021-01-15 18:59:36:438
0,-0.292,9.711,0,0,0,8197,2021-01-15 18:59:36:448
0,-0.292,9.711,0,0,0,8207,2021-01-15 18:59:36:458
0,-0.292,9.711,0,0,0,8217,2021-01-15 18:59:36:468
-0.014,-0.29,9.694,0,0,0,8228,2021-01-15 18:59:36:479
-0.014,-0.29,9.694,0,0,0,8237,2021-01-15 18:59:36:488
-0.014,-0.29,9.694,0,0,0,8249,2021-01-15 18:59:36:500
-0.014,-0.29,9.694,0,-0.001,0,8258,2021-01-15 18:59:36:509
-0.014,-0.29,9.694,0,-0.001,0,8268,2021-01-15 18:59:36:519
-0.014,-0.29,9.694,0,-0.001,0,8277,2021-01-15 18:59:36:528
-0.017,-0.285,9.714,0,-0.001,0,8292,2021-01-15 18:59:36:543
-0.017,-0.285,9.714,0,-0.001,0,8304,2021-01-15 18:59:36:555
-0.017,-0.285,9.714,0,-0.001,0,8307,2021-01-15 18:59:36:558
-0.017,-0.285,9.714,0,-0.001,0,8317,2021-01-15 18:59:36:568
-0.017,-0.285,9.714,0,-0.001,0,8327,2021-01-15 18:59:36:578
-0.017,-0.285,9.714,0,-0.001,0,8337,2021-01-15 18:59:36:588
-0.017,-0.297,9.723,0,-0.001,0,8347,2021-01-15 18:59:36:598
-0.017,-0.297,9.723,0,-0.001,0,8358,2021-01-15 18:59:36:609
-0.017,-0.297,9.723,0,-0.001,0,8369,2021-01-15 18:59:36:620
-0.017,-0.297,9.723,0,-0.001,0,8377,2021-01-15 18:59:36:628
-0.017,-0.297,9.723,0,-0.001,0,8388,2021-01-15 18:59:36:639
-0.017,-0.297,9.723,0,-0.001,0,8398,2021-01-15 18:59:36:649
-0.029,-0.306,9.716,0,-0.001,0,8408,2021-01-15 18:59:36:659
-0.029,-0.306,9.716,0,-0.001,0,8420,2021-01-15 18:59:36:671
-0.029,-0.306,9.716,0,-0.001,0,8429,2021-01-15 18:59:36:680
-0.029,-0.306,9.716,0,-0.001,0,8437,2021-01-15 18:59:36:688
-0.029,-0.306,9.716,0,-0.001,0,8447,2021-01-15 18:59:36:698
-0.029,-0.306,9.716,0,-0.001,0,8457,2021-01-15 18:59:36:708
-0.012,-0.304,9.728,0,-0.001,0,8467,2021-01-15 18:59:36:718
-0.012,-0.304,9.728,0,-0.001,0,8478,2021-01-15 18:59:36:729
-0.012,-0.304,9.728,0,-0.001,0,8496,2021-01-15 18:59:36:747
-0.012,-0.304,9.728,0,-0.001,0,8497,2021-01-15 18:59:36:748
-0.012,-0.304,9.728,0,-0.001,0,8508,2021-01-15 18:59:36:759
-0.012,-0.304,9.728,0,-0.001,0,8517,2021-01-15 18:59:36:768
-0.014,-0.294,9.709,0,-0.001,0,8527,2021-01-15 18:59:36:778
-0.014,-0.294,9.709,0,-0.001,0,8537,2021-01-15 18:59:36:788
-0.014,-0.294,9.709,0,-0.001,0,8548,2021-01-15 18:59:36:799
-0.014,-0.294,9.709,0,-0.001,0,8557,2021-01-15 18:59:36:808
-0.014,-0.294,9.709,0,-0.001,0,8567,2021-01-15 18:59:36:818
-0.014,-0.294,9.709,0,-0.001,0,8577,2021-01-15 18:59:36:828
-0.014,-0.294,9.709,0,-0.001,0,8588,2021-01-15 18:59:36:839
-0.036,-0.318,9.697,0,-0.001,0,8597,2021-01-15 18:59:36:848
-0.036,-0.318,9.697,0,0,0,8608,2021-01-15 18:59:36:859
-0.036,-0.318,9.697,0,0,0,8617,2021-01-15 18:59:36:868
-0.036,-0.318,9.697,0,0,0,8627,2021-01-15 18:59:36:878
-0.036,-0.318,9.697,0,0,0,8638,2021-01-15 18:59:36:889
-0.022,-0.294,9.735,0,0,0,8648,2021-01-15 18:59:36:899
-0.022,-0.294,9.735,0,0,0,8657,2021-01-15 18:59:36:908
-0.022,-0.294,9.735,0,0,0,8668,2021-01-15 18:59:36:919
-0.022,-0.294,9.735,0,0,0,8677,2021-01-15 18:59:36:928
-0.022,-0.294,9.735,0,0,0,8687,2021-01-15 18:59:36:938
-0.022,-0.294,9.735,0,0,0,8697,2021-01-15 18:59:36:948
-0.017,-0.309,9.73,0,0,0,8707,2021-01-15 18:59:36:958
-0.017,-0.309,9.73,0,0,0,8717,2021-01-15 18:59:36:968
-0.017,-0.309,9.73,0,-0.001,0,8735,2021-01-15 18:59:36:986
-0.017,-0.309,9.73,0,-0.001,0,8737,2021-01-15 18:59:36:988
-0.017,-0.309,9.73,0,-0.001,0,8747,2021-01-15 18:59:36:998
-0.017,-0.309,9.73,0,-0.001,0,8758,2021-01-15 18:59:37:009
0,-0.321,9.723,0,-0.001,0,8767,2021-01-15 18:59:37:018
0,-0.321,9.723,0,-0.001,0,8777,2021-01-15 18:59:37:028
0,-0.321,9.723,0,-0.001,0,8788,2021-01-15 18:59:37:039
0,-0.321,9.723,0,-0.001,0,8797,2021-01-15 18:59:37:048
0,-0.321,9.723,0,-0.001,0,8807,2021-01-15 18:59:37:058
0,-0.321,9.723,0,-0.001,0,8817,2021-01-15 18:59:37:068
-0.014,-0.292,9.711,0,-0.001,0,8827,2021-01-15 18:59:37:078
-0.014,-0.292,9.711,0,-0.001,0,8837,2021-01-15 18:59:37:088
-0.014,-0.292,9.711,0,-0.001,0,8847,2021-01-15 18:59:37:098
-0.014,-0.292,9.711,0,-0.001,0,8857,2021-01-15 18:59:37:108
-0.014,-0.292,9.711,0,-0.001,0,8867,2021-01-15 18:59:37:118
-0.014,-0.292,9.711,0,-0.001,0,8877,2021-01-15 18:59:37:128
-0.017,-0.302,9.721,0,-0.001,0,8887,2021-01-15 18:59:37:138
-0.017,-0.302,9.721,0,-0.001,0,8897,2021-01-15 18:59:37:148
-0.017,-0.302,9.721,0,-0.001,0,8907,2021-01-15 18:59:37:158
-0.017,-0.302,9.721,0,-0.001,0,8917,2021-01-15 18:59:37:168
-0.017,-0.302,9.721,0,-0.001,0,8927,2021-01-15 18:59:37:178
-0.017,-0.302,9.721,0,-0.001,0,8937,2021-01-15 18:59:37:188
-0.005,-0.302,9.699,0,-0.001,0,8947,2021-01-15 18:59:37:198
-0.005,-0.302,9.699,0,-0.001,0,8957,2021-01-15 18:59:37:208
-0.005,-0.302,9.699,0,-0.001,0,8967,2021-01-15 18:59:37:218
-0.005,-0.302,9.699,0,-0.001,0,8977,2021-01-15 18:59:37:228
-0.005,-0.302,9.699,0,-0.001,0,8988,2021-01-15 18:59:37:239
-0.005,-0.302,9.699,0,-0.001,0,8997,2021-01-15 18:59:37:248
-0.022,-0.292,9.733,0,-0.001,0,9007,2021-01-15 18:59:37:258
-0.022,-0.292,9.733,0,-0.001,0,9018,2021-01-15 18:59:37:269
-0.022,-0.292,9.733,0,-0.001,0,9027,2021-01-15 18:59:37:278
-0.022,-0.292,9.733,0,-0.001,0,9037,2021-01-15 18:59:37:288
-0.022,-0.292,9.733,0,-0.001,0,9047,2021-01-15 18:59:37:298
-0.022,-0.292,9.733,0,-0.001,0,9057,2021-01-15 18:59:37:308
-0.012,-0.302,9.735,0,-0.001,0,9067,2021-01-15 18:59:37:318
-0.012,-0.302,9.735,0,-0.001,0,9077,2021-01-15 18:59:37:328
-0.012,-0.302,9.735,0,-0.001,0,9087,2021-01-15 18:59:37:338
-0.012,-0.302,9.735,0,0,0,9097,2021-01-15 18:59:37:348
-0.012,-0.302,9.735,0,0,0,9107,2021-01-15 18:59:37:358
-0.012,-0.302,9.735,0,0,0,9117,2021-01-15 18:59:37:368
-0.022,-0.302,9.714,0,0,0,9130,2021-01-15 18:59:37:381
-0.022,-0.302,9.714,0,0,0,9142,2021-01-15 18:59:37:393
-0.022,-0.302,9.714,0,0,0,9147,2021-01-15 18:59:37:398
-0.022,-0.302,9.714,0,0,0,9157,2021-01-15 18:59:37:408
-0.022,-0.302,9.714,0,0,0,9168,2021-01-15 18:59:37:419
-0.022,-0.302,9.714,0,0,0,9177,2021-01-15 18:59:37:428
0,-0.304,9.721,0,0,0,9187,2021-01-15 18:59:37:438
0,-0.304,9.721,0,0,0,9197,2021-01-15 18:59:37:448
0,-0.304,9.721,0,-0.001,0,9207,2021-01-15 18:59:37:458
0,-0.304,9.721,0,-0.001,0,9219,2021-01-15 18:59:37:470
0,-0.304,9.721,0,-0.001,0,9227,2021-01-15 18:59:37:478
0,-0.304,9.721,0,-0.001,0,9237,2021-01-15 18:59:37:488
-0.017,-0.314,9.706,0,-0.001,0,9247,2021-01-15 18:59:37:498
-0.017,-0.314,9.706,0,-0.001,0,9257,2021-01-15 18:59:37:508
-0.017,-0.314,9.706,0,-0.001,0,9267,2021-01-15 18:59:37:518
-0.017,-0.314,9.706,0,-0.001,0,9277,2021-01-15 18:59:37:528
-0.017,-0.314,9.706,0,-0.001,0,9287,2021-01-15 18:59:37:538
-0.017,-0.314,9.706,0,-0.001,0,9297,2021-01-15 18:59:37:548
0,-0.309,9.714,0,-0.001,0,9307,2021-01-15 18:59:37:558
0,-0.309,9.714,0,-0.001,0,9318,2021-01-15 18:59:37:569
0,-0.309,9.714,0,-0.001,0,9328,2021-01-15 18:59:37:579
0,-0.309,9.714,0,-0.001,0,9337,2021-01-15 18:59:37:588
0,-0.309,9.714,0,-0.001,0,9347,2021-01-15 18:59:37:598
0,-0.309,9.714,0,-0.001,0,9357,2021-01-15 18:59:37:608
-0.024,-0.314,9.687,0,-0.001,0,9368,2021-01-15 18:59:37:619
-0.024,-0.314,9.687,0,-0.001,0,9377,2021-01-15 18:59:37:628
-0.024,-0.314,9.687,0,-0.001,0,9388,2021-01-15 18:59:37:639
-0.024,-0.314,9.687,0,-0.001,0,9398,2021-01-15 18:59:37:649
-0.024,-0.314,9.687,0,-0.001,0,9407,2021-01-15 18:59:37:658
-0.024,-0.314,9.687,0,-0.001,0,9418,2021-01-15 18:59:37:669
-0.034,-0.323,9.73,0,-0.001,0,9430,2021-01-15 18:59:37:681
-0.034,-0.323,9.73,0,-0.001,0,9437,2021-01-15 18:59:37:688
-0.034,-0.323,9.73,0,0,0,9447,2021-01-15 18:59:37:698
-0.034,-0.323,9.73,0,0,0,9458,2021-01-15 18:59:37:709
-0.034,-0.323,9.73,0,0,0,9468,2021-01-15 18:59:37:719
-0.034,-0.323,9.73,0,0,0,9477,2021-01-15 18:59:37:728
0.005,-0.321,9.73,0,0,0,9487,2021-01-15 18:59:37:738
0.005,-0.321,9.73,0,0,0,9497,2021-01-15 18:59:37:748
0.005,-0.321,9.73,0,0,0,9507,2021-01-15 18:59:37:758
0.005,-0.321,9.73,0,0,0,9517,2021-01-15 18:59:37:768
0.005,-0.321,9.73,0,0,0,9527,2021-01-15 18:59:37:778
0.005,-0.321,9.73,0,0,0,9537,2021-01-15 18:59:37:788
-0.029,-0.314,9.718,0,0,0,9548,2021-01-15 18:59:37:799
-0.029,-0.314,9.718,0,0,0,9557,2021-01-15 18:59:37:808
-0.029,-0.314,9.718,0,-0.001,0,9577,2021-01-15 18:59:37:828
-0.029,-0.314,9.718,0,-0.001,0,9578,2021-01-15 18:59:37:829
-0.029,-0.314,9.718,0,-0.001,0,9589,2021-01-15 18:59:37:840
-0.029,-0.314,9.718,0,-0.001,0,9600,2021-01-15 18:59:37:851
-0.005,-0.297,9.697,0,-0.001,0,9610,2021-01-15 18:59:37:861
-0.005,-0.297,9.697,0,-0.001,0,9617,2021-01-15 18:59:37:868
-0.005,-0.297,9.697,0,-0.001,0,9627,2021-01-15 18:59:37:878
-0.005,-0.297,9.697,0,-0.001,0,9638,2021-01-15 18:59:37:889
-0.005,-0.297,9.697,0,-0.001,0,9647,2021-01-15 18:59:37:898
-0.005,-0.297,9.697,0,-0.001,0,9657,2021-01-15 18:59:37:908
-0.041,-0.328,9.728,0,-0.001,0,9668,2021-01-15 18:59:37:919
-0.041,-0.328,9.728,0,-0.001,0,9681,2021-01-15 18:59:37:932
-0.041,-0.328,9.728,0,-0.001,0,9687,2021-01-15 18:59:37:938
-0.041,-0.328,9.728,0,-0.001,0,9697,2021-01-15 18:59:37:948
-0.041,-0.328,9.728,0,-0.001,0,9707,2021-01-15 18:59:37:958
-0.041,-0.328,9.728,0,-0.001,0,9717,2021-01-15 18:59:37:968
-0.005,-0.287,9.706,0,-0.001,0,9727,2021-01-15 18:59:37:978
-0.005,-0.287,9.706,0,-0.001,0,9737,2021-01-15 18:59:37:988
-0.005,-0.287,9.706,0,-0.001,0,9748,2021-01-15 18:59:37:999
-0.005,-0.287,9.706,0,-0.001,0,9757,2021-01-15 18:59:38:008
-0.005,-0.287,9.706,0,-0.001,0,9767,2021-01-15 18:59:38:018
-0.005,-0.287,9.706,0,-0.001,0,9777,2021-01-15 18:59:38:028
-0.024,-0.33,9.723,0,-0.001,0,9787,2021-01-15 18:59:38:038
-0.024,-0.33,9.723,0,-0.001,0,9797,2021-01-15 18:59:38:048
-0.024,-0.33,9.723,0,-0.001,0,9807,2021-01-15 18:59:38:058
-0.024,-0.33,9.723,0,-0.001,0,9817,2021-01-15 18:59:38:068
-0.024,-0.33,9.723,0,-0.001,0,9827,2021-01-15 18:59:38:078
-0.024,-0.33,9.723,0,-0.001,0,9837,2021-01-15 18:59:38:088
-0.007,-0.294,9.716,0,-0.001,0,9848,2021-01-15 18:59:38:099
-0.007,-0.294,9.716,0,-0.001,0,9857,2021-01-15 18:59:38:108
-0.007,-0.294,9.716,0,-0.001,0,9867,2021-01-15 18:59:38:118
-0.007,-0.294,9.716,0,-0.001,0,9877,2021-01-15 18:59:38:128
-0.007,-0.294,9.716,0,-0.001,0,9890,2021-01-15 18:59:38:141
-0.007,-0.294,9.716,0,-0.001,0,9897,2021-01-15 18:59:38:148
-0.007,-0.304,9.702,0,-0.001,0,9908,2021-01-15 18:59:38:159
-0.007,-0.304,9.702,0,-0.001,0,9917,2021-01-15 18:59:38:168
-0.007,-0.304,9.702,0,-0.001,0,9927,2021-01-15 18:59:38:178
-0.007,-0.304,9.702,0,-0.001,0,9938,2021-01-15 18:59:38:189
-0.007,-0.304,9.702,0,-0.001,0,9947,2021-01-15 18:59:38:198
-0.007,-0.304,9.702,0,-0.001,0,9957,2021-01-15 18:59:38:208
-0.014,-0.309,9.74,0,-0.001,0,9967,2021-01-15 18:59:38:218
-0.014,-0.309,9.74,0,-0.001,0,9977,2021-01-15 18:59:38:228
-0.014,-0.309,9.74,0,-0.001,0,9987,2021-01-15 18:59:38:238
-0.014,-0.309,9.74,0,-0.001,0,9997,2021-01-15 18:59:38:248
-0.014,-0.309,9.74,0,-0.001,0,10007,2021-01-15 18:59:38:258
-0.014,-0.309,9.74,0,-0.001,0,10017,2021-01-15 18:59:38:268
-0.022,-0.302,9.721,0,-0.001,0,10031,2021-01-15 18:59:38:282
-0.022,-0.302,9.721,0,-0.001,0,10037,2021-01-15 18:59:38:288
-0.022,-0.302,9.721,0,-0.001,0,10047,2021-01-15 18:59:38:298
-0.022,-0.302,9.721,0,-0.001,0,10057,2021-01-15 18:59:38:308
-0.022,-0.302,9.721,0,-0.001,0,10067,2021-01-15 18:59:38:318
-0.022,-0.302,9.721,0,-0.001,0,10077,2021-01-15 18:59:38:328
-0.01,-0.299,9.706,0,-0.001,0,10088,2021-01-15 18:59:38:339
-0.01,-0.299,9.706,0,-0.001,0,10098,2021-01-15 18:59:38:349
-0.01,-0.299,9.706,0,-0.001,0,10107,2021-01-15 18:59:38:358
-0.01,-0.299,9.706,0,-0.001,0,10121,2021-01-15 18:59:38:372
-0.01,-0.299,9.706,0,-0.001,0,10127,2021-01-15 18:59:38:378
-0.01,-0.299,9.706,0,-0.001,0,10137,2021-01-15 18:59:38:388
-0.017,-0.314,9.704,0,-0.001,0,10147,2021-01-15 18:59:38:398
-0.017,-0.314,9.704,0,-0.001,0,10157,2021-01-15 18:59:38:408
-0.017,-0.314,9.704,0,-0.001,0,10167,2021-01-15 18:59:38:418
-0.017,-0.314,9.704,0,-0.001,0,10177,2021-01-15 18:59:38:428
-0.017,-0.314,9.704,0,-0.001,0,10190,2021-01-15 18:59:38:441
-0.017,-0.314,9.704,0,-0.001,0,10197,2021-01-15 18:59:38:448
-0.005,-0.292,9.726,0,-0.001,0,10207,2021-01-15 18:59:38:458
-0.005,-0.292,9.726,0,-0.001,0,10218,2021-01-15 18:59:38:469
-0.005,-0.292,9.726,0,-0.001,0,10227,2021-01-15 18:59:38:478
-0.005,-0.292,9.726,0,-0.001,0,10241,2021-01-15 18:59:38:492
-0.005,-0.292,9.726,0,-0.001,0,10247,2021-01-15 18:59:38:498
-0.005,-0.292,9.726,0,-0.001,0,10257,2021-01-15 18:59:38:508
-0.007,-0.297,9.711,0,-0.001,0,10267,2021-01-15 18:59:38:518
-0.007,-0.297,9.711,0,-0.001,0,10277,2021-01-15 18:59:38:528
-0.007,-0.297,9.711,0,-0.001,0,10290,2021-01-15 18:59:38:541
-0.007,-0.297,9.711,0,-0.001,0,10297,2021-01-15 18:59:38:548
-0.007,-0.297,9.711,0,-0.001,0,10309,2021-01-15 18:59:38:560
-0.007,-0.297,9.711,0,-0.001,0,10319,2021-01-15 18:59:38:570
-0.019,-0.306,9.726,0,-0.001,0,10329,2021-01-15 18:59:38:580
-0.019,-0.306,9.726,0,-0.001,0,10337,2021-01-15 18:59:38:588
-0.019,-0.306,9.726,0,-0.001,0,10347,2021-01-15 18:59:38:598
-0.019,-0.306,9.726,0,-0.001,0,10357,2021-01-15 18:59:38:608
-0.019,-0.306,9.726,0,-0.001,0,10368,2021-01-15 18:59:38:619
-0.019,-0.306,9.726,0,-0.001,0,10377,2021-01-15 18:59:38:628
0.01,-0.285,9.716,0,-0.001,0,10387,2021-01-15 18:59:38:638
0.01,-0.285,9.716,0,-0.001,0,10397,2021-01-15 18:59:38:648
0.01,-0.285,9.716,0,-0.001,0,10407,2021-01-15 18:59:38:658
0.01,-0.285,9.716,0,-0.001,0,10419,2021-01-15 18:59:38:670
0.01,-0.285,9.716,0,-0.001,0,10427,2021-01-15 18:59:38:678
0.01,-0.285,9.716,0,-0.001,0,10438,2021-01-15 18:59:38:689
-0.024,-0.309,9.711,0,-0.001,0,10447,2021-01-15 18:59:38:698
-0.024,-0.309,9.711,0,-0.001,0,10457,2021-01-15 18:59:38:708
-0.024,-0.309,9.711,0,-0.001,0,10469,2021-01-15 18:59:38:720
-0.024,-0.309,9.711,0,-0.001,0,10477,2021-01-15 18:59:38:728
-0.024,-0.309,9.711,0,-0.001,0,10487,2021-01-15 18:59:38:738
-0.024,-0.309,9.711,0,-0.001,0,10497,2021-01-15 18:59:38:748
-0.022,-0.304,9.721,0,-0.001,0,10507,2021-01-15 18:59:38:758
-0.022,-0.304,9.721,0,-0.001,0,10518,2021-01-15 18:59:38:769
-0.022,-0.304,9.721,0,0,0,10530,2021-01-15 18:59:38:781
-0.022,-0.304,9.721,0,0,0,10540,2021-01-15 18:59:38:791
-0.022,-0.304,9.721,0,0,0,10548,2021-01-15 18:59:38:799
-0.022,-0.304,9.721,0,0,0,10558,2021-01-15 18:59:38:809
0.002,-0.292,9.702,0,0,0,10569,2021-01-15 18:59:38:820
0.002,-0.292,9.702,0,0,0,10577,2021-01-15 18:59:38:828
0.002,-0.292,9.702,0,0,0,10587,2021-01-15 18:59:38:838
0.002,-0.292,9.702,0,0,0,10597,2021-01-15 18:59:38:848
0.002,-0.292,9.702,0,0,0,10607,2021-01-15 18:59:38:858
0.002,-0.292,9.702,0,0,0,10617,2021-01-15 18:59:38:868
-0.01,-0.314,9.73,0,0,0,10629,2021-01-15 18:59:38:880
-0.01,-0.314,9.73,0,0,0,10637,2021-01-15 18:59:38:888
-0.01,-0.314,9.73,0,0,0,10647,2021-01-15 18:59:38:898
-0.01,-0.314,9.73,0,-0.001,0,10670,2021-01-15 18:59:38:921
-0.01,-0.314,9.73,0,-0.001,0,10678,2021-01-15 18:59:38:929
-0.01,-0.314,9.73,0,-0.001,0,10678,2021-01-15 18:59:38:929
0.002,-0.29,9.723,0,-0.001,0,10690,2021-01-15 18:59:38:941
0.002,-0.29,9.723,0,-0.001,0,10697,2021-01-15 18:59:38:948
0.002,-0.29,9.723,0,-0.001,0,10707,2021-01-15 18:59:38:958
0.002,-0.29,9.723,0,-0.001,0,10722,2021-01-15 18:59:38:973
0.002,-0.29,9.723,0,-0.001,0,10727,2021-01-15 18:59:38:978
0.002,-0.29,9.723,0,-0.001,0,10737,2021-01-15 18:59:38:988
-0.026,-0.302,9.718,0,-0.001,0,10747,2021-01-15 18:59:38:998
-0.026,-0.302,9.718,0,-0.001,0,10757,2021-01-15 18:59:39:008
-0.026,-0.302,9.718,0,0,0,10774,2021-01-15 18:59:39:025
-0.026,-0.302,9.718,0,0,0,10778,2021-01-15 18:59:39:029
-0.026,-0.302,9.718,0,0,0,10788,2021-01-15 18:59:39:039
-0.026,-0.302,9.718,0,0,0,10797,2021-01-15 18:59:39:048
-0.024,-0.304,9.73,0,0,0,10807,2021-01-15 18:59:39:058
-0.024,-0.304,9.73,0,0,0,10817,2021-01-15 18:59:39:068
-0.024,-0.304,9.73,0,0,0,10827,2021-01-15 18:59:39:078
-0.024,-0.304,9.73,0,0,0,10837,2021-01-15 18:59:39:088
-0.024,-0.304,9.73,0,0,0,10850,2021-01-15 18:59:39:101
-0.024,-0.304,9.73,0,0,0,10857,2021-01-15 18:59:39:108
0,-0.299,9.726,0,0,0,10867,2021-01-15 18:59:39:118
0,-0.299,9.726,0,0,0,10877,2021-01-15 18:59:39:128
0,-0.299,9.726,0,0,0,10888,2021-01-15 18:59:39:139
0,-0.299,9.726,0,0,0,10897,2021-01-15 18:59:39:148
0,-0.299,9.726,0,0,0,10915,2021-01-15 18:59:39:166
0,-0.299,9.726,0,0,0,10919,2021-01-15 18:59:39:170
0.005,-0.297,9.733,0,0,0,10927,2021-01-15 18:59:39:178
0.005,-0.297,9.733,0,0,0,10937,2021-01-15 18:59:39:188
0.005,-0.297,9.733,0,0,0,10948,2021-01-15 18:59:39:199
0.005,-0.297,9.733,0,0,0,10958,2021-01-15 18:59:39:209
0.005,-0.297,9.733,0,0,0,10967,2021-01-15 18:59:39:218
0.005,-0.297,9.733,0,0,0,10977,2021-01-15 18:59:39:228
-0.024,-0.299,9.723,0,0,0,10988,2021-01-15 18:59:39:239
-0.024,-0.299,9.723,0,0,0,10997,2021-01-15 18:59:39:248
-0.024,-0.299,9.723,0,-0.001,0,11007,2021-01-15 18:59:39:258
-0.024,-0.299,9.723,0,-0.001,0,11017,2021-01-15 18:59:39:268
-0.024,-0.299,9.723,0,-0.001,0,11027,2021-01-15 18:59:39:278
-0.024,-0.299,9.723,0,-0.001,0,11038,2021-01-15 18:59:39:289
-0.022,-0.306,9.728,0,-0.001,0,11047,2021-01-15 18:59:39:298
-0.022,-0.306,9.728,0,-0.001,0,11057,2021-01-15 18:59:39:308
-0.022,-0.306,9.728,0,-0.001,0,11067,2021-01-15 18:59:39:318
-0.022,-0.306,9.728,0,-0.001,0,11077,2021-01-15 18:59:39:328
-0.022,-0.306,9.728,0,-0.001,0,11086,2021-01-15 18:59:39:337
-0.022,-0.306,9.728,0,-0.001,0,11097,2021-01-15 18:59:39:348
-0.022,-0.309,9.728,0,-0.001,0,11106,2021-01-15 18:59:39:357
-0.022,-0.309,9.728,0,-0.001,0,11117,2021-01-15 18:59:39:368
-0.022,-0.309,9.728,0,-0.001,0,11127,2021-01-15 18:59:39:378
-0.022,-0.309,9.728,0,-0.001,0,11139,2021-01-15 18:59:39:390
-0.022,-0.309,9.728,0,-0.001,0,11147,2021-01-15 18:59:39:398
-0.022,-0.309,9.728,0,-0.001,0,11157,2021-01-15 18:59:39:408
-0.014,-0.311,9.716,0,-0.001,0,11167,2021-01-15 18:59:39:418
-0.014,-0.311,9.716,0,-0.001,0,11178,2021-01-15 18:59:39:429
-0.014,-0.311,9.716,0,-0.001,0,11188,2021-01-15 18:59:39:439
-0.014,-0.311,9.716,0,-0.001,0,11197,2021-01-15 18:59:39:448
-0.014,-0.311,9.716,0,-0.001,0,11207,2021-01-15 18:59:39:458
-0.014,-0.311,9.716,0,-0.001,0,11217,2021-01-15 18:59:39:468
-0.017,-0.299,9.709,0,-0.001,0,11227,2021-01-15 18:59:39:478
-0.017,-0.299,9.709,0,-0.001,0,11237,2021-01-15 18:59:39:488
-0.017,-0.299,9.709,0,-0.001,0,11247,2021-01-15 18:59:39:498
-0.017,-0.299,9.709,0,-0.001,0,11257,2021-01-15 18:59:39:508
-0.017,-0.299,9.709,0,-0.001,0,11267,2021-01-15 18:59:39:518
-0.017,-0.299,9.709,0,-0.001,0,11278,2021-01-15 18:59:39:529
-0.007,-0.292,9.742,0,-0.001,0,11288,2021-01-15 18:59:39:539
-0.007,-0.292,9.742,0,-0.001,0,11297,2021-01-15 18:59:39:548
-0.007,-0.292,9.742,0,-0.001,0,11308,2021-01-15 18:59:39:559
-0.007,-0.292,9.742,0,-0.001,0,11317,2021-01-15 18:59:39:568
-0.007,-0.292,9.742,0,-0.001,0,11327,2021-01-15 18:59:39:578
-0.007,-0.292,9.742,0,-0.001,0,11337,2021-01-15 18:59:39:588
-0.002,-0.304,9.726,0,-0.001,0,11347,2021-01-15 18:59:39:598
-0.002,-0.304,9.726,0,-0.001,0,11357,2021-01-15 18:59:39:608
-0.002,-0.304,9.726,0,0,0,11367,2021-01-15 18:59:39:618
-0.002,-0.304,9.726,0,0,0,11377,2021-01-15 18:59:39:628
-0.002,-0.304,9.726,0,0,0,11387,2021-01-15 18:59:39:638
-0.002,-0.304,9.726,0,0,0,11397,2021-01-15 18:59:39:648
-0.005,-0.302,9.728,0,0,0,11407,2021-01-15 18:59:39:658
-0.005,-0.302,9.728,0,0,0,11417,2021-01-15 18:59:39:668
-0.005,-0.302,9.728,0,0,0,11427,2021-01-15 18:59:39:678
-0.005,-0.302,9.728,0,0,0,11437,2021-01-15 18:59:39:688
-0.005,-0.302,9.728,0,0,0,11447,2021-01-15 18:59:39:698
-0.005,-0.302,9.728,0,0,0,11457,2021-01-15 18:59:39:708
-0.024,-0.302,9.704,0,0,0,11467,2021-01-15 18:59:39:718
-0.024,-0.302,9.704,0,0,0,11477,2021-01-15 18:59:39:728
-0.024,-0.302,9.704,0,0,0,11487,2021-01-15 18:59:39:738
-0.024,-0.302,9.704,0,0,0,11497,2021-01-15 18:59:39:748
-0.024,-0.302,9.704,0,0,0,11507,2021-01-15 18:59:39:758
-0.024,-0.302,9.704,0,0,0,11517,2021-01-15 18:59:39:768
-0.019,-0.316,9.711,0,0,0,11527,2021-01-15 18:59:39:778
-0.019,-0.316,9.711,0,0,0,11537,2021-01-15 18:59:39:788
-0.019,-0.316,9.711,0,0,0,11547,2021-01-15 18:59:39:798
-0.019,-0.316,9.711,0,0,0,11556,2021-01-15 18:59:39:807
-0.019,-0.316,9.711,0,0,0,11567,2021-01-15 18:59:39:818
-0.019,-0.316,9.711,0,0,0,11577,2021-01-15 18:59:39:828
-0.014,-0.302,9.728,0,0,0,11587,2021-01-15 18:59:39:838
-0.014,-0.302,9.728,0,0,0,11597,2021-01-15 18:59:39:848
-0.014,-0.302,9.728,0,0,0,11607,2021-01-15 18:59:39:858
-0.014,-0.302,9.728,0,0,0,11617,2021-01-15 18:59:39:868
-0.014,-0.302,9.728,0,0,0,11627,2021-01-15 18:59:39:878
-0.014,-0.302,9.728,0,0,0,11637,2021-01-15 18:59:39:888
-0.031,-0.297,9.728,0,0,0,11647,2021-01-15 18:59:39:898
-0.031,-0.297,9.728,0,0,0,11657,2021-01-15 18:59:39:908
-0.031,-0.297,9.728,0,0,0,11667,2021-01-15 18:59:39:918
-0.031,-0.297,9.728,0,0,0,11677,2021-01-15 18:59:39:928
-0.031,-0.297,9.728,0,0,0,11687,2021-01-15 18:59:39:938
-0.031,-0.297,9.728,0,0,0,11697,2021-01-15 18:59:39:948
-0.007,-0.311,9.718,0,0,0,11707,2021-01-15 18:59:39:958
-0.007,-0.311,9.718,0,0,0,11718,2021-01-15 18:59:39:969
-0.007,-0.311,9.718,0,0,0,11727,2021-01-15 18:59:39:978
-0.007,-0.311,9.718,0,0,0,11737,2021-01-15 18:59:39:988
-0.007,-0.311,9.718,0,0,0,11747,2021-01-15 18:59:39:998
-0.007,-0.311,9.718,0,0,0,11757,2021-01-15 18:59:40:008
-0.012,-0.309,9.721,0,0,0,11767,2021-01-15 18:59:40:018
-0.012,-0.309,9.721,0,0,0,11777,2021-01-15 18:59:40:028
-0.012,-0.309,9.721,0,0,0,11789,2021-01-15 18:59:40:040
-0.012,-0.309,9.721,0,0,0,11797,2021-01-15 18:59:40:048
-0.012,-0.309,9.721,0,0,0,11807,2021-01-15 18:59:40:058
-0.012,-0.309,9.721,0,0,0,11817,2021-01-15 18:59:40:068
-0.019,-0.302,9.721,0,0,0,11828,2021-01-15 18:59:40:079
-0.019,-0.302,9.721,0,0,0,11838,2021-01-15 18:59:40:089
-0.019,-0.302,9.721,0,0,0,11847,2021-01-15 18:59:40:098
-0.019,-0.302,9.721,0,0,0,11857,2021-01-15 18:59:40:108
-0.019,-0.302,9.721,0,0,0,11868,2021-01-15 18:59:40:119
-0.019,-0.302,9.721,0,0,0,11877,2021-01-15 18:59:40:128
-0.007,-0.306,9.714,0,0,0,11887,2021-01-15 18:59:40:138
-0.007,-0.306,9.714,0,0,0,11897,2021-01-15 18:59:40:148
-0.007,-0.306,9.714,0,0,0,11907,2021-01-15 18:59:40:158
-0.007,-0.306,9.714,0,0,0,11917,2021-01-15 18:59:40:168
-0.007,-0.306,9.714,0,0,0,11927,2021-01-15 18:59:40:178
-0.007,-0.306,9.714,0,0,0,11937,2021-01-15 18:59:40:188
-0.01,-0.309,9.721,0,0,0,11947,2021-01-15 18:59:40:198
-0.01,-0.309,9.721,0,0,0,11957,2021-01-15 18:59:40:208
-0.01,-0.309,9.721,0,0,0,11967,2021-01-15 18:59:40:218
-0.01,-0.309,9.721,0,0,0,11977,2021-01-15 18:59:40:228
-0.01,-0.309,9.721,0,0,0,11987,2021-01-15 18:59:40:238
-0.01,-0.309,9.721,0,0,0,11998,2021-01-15 18:59:40:249
-0.002,-0.299,9.721,0,0,0,12007,2021-01-15 18:59:40:258
-0.002,-0.299,9.721,0,0,0,12017,2021-01-15 18:59:40:268
-0.002,-0.299,9.721,0,0,0,12027,2021-01-15 18:59:40:278
-0.002,-0.299,9.721,0,0,0,12037,2021-01-15 18:59:40:288
-0.002,-0.299,9.721,0,0,0,12047,2021-01-15 18:59:40:298
-0.002,-0.299,9.721,0,0,0,12057,2021-01-15 18:59:40:308
-0.017,-0.297,9.721,0,0,0,12067,2021-01-15 18:59:40:318
-0.017,-0.297,9.721,0,0,0,12077,2021-01-15 18:59:40:328
-0.017,-0.297,9.721,0,0,0,12087,2021-01-15 18:59:40:338
-0.017,-0.297,9.721,0,0,0,12098,2021-01-15 18:59:40:349
-0.017,-0.297,9.721,0,0,0,12107,2021-01-15 18:59:40:358
-0.017,-0.297,9.721,0,0,0,12117,2021-01-15 18:59:40:368
-0.036,-0.311,9.716,0,0,0,12127,2021-01-15 18:59:40:378
-0.036,-0.311,9.716,0,0,0,12137,2021-01-15 18:59:40:388
-0.036,-0.311,9.716,0,0,0,12147,2021-01-15 18:59:40:398
-0.036,-0.311,9.716,0,0,0,12157,2021-01-15 18:59:40:408
-0.036,-0.311,9.716,0,0,0,12167,2021-01-15 18:59:40:418
-0.036,-0.311,9.716,0,0,0,12177,2021-01-15 18:59:40:428
-0.014,-0.299,9.716,0,0,0,12187,2021-01-15 18:59:40:438
-0.014,-0.299,9.716,0,0,0,12198,2021-01-15 18:59:40:449
-0.014,-0.299,9.716,0,-0.001,0,12207,2021-01-15 18:59:40:458
-0.014,-0.299,9.716,0,-0.001,0,12218,2021-01-15 18:59:40:469
-0.014,-0.299,9.716,0,-0.001,0,12227,2021-01-15 18:59:40:478
-0.014,-0.299,9.716,0,-0.001,0,12237,2021-01-15 18:59:40:488
-0.012,-0.294,9.704,0,-0.001,0,12247,2021-01-15 18:59:40:498
-0.012,-0.294,9.704,0,-0.001,0,12257,2021-01-15 18:59:40:508
-0.012,-0.294,9.704,0,-0.001,0,12267,2021-01-15 18:59:40:518
-0.012,-0.294,9.704,0,-0.001,0,12277,2021-01-15 18:59:40:528
-0.012,-0.294,9.704,0,-0.001,0,12287,2021-01-15 18:59:40:538
-0.012,-0.294,9.704,0,-0.001,0,12298,2021-01-15 18:59:40:549
-0.014,-0.302,9.709,0,-0.001,0,12307,2021-01-15 18:59:40:558
-0.014,-0.302,9.709,0,-0.001,0,12317,2021-01-15 18:59:40:568
-0.014,-0.302,9.709,0,0,0,12327,2021-01-15 18:59:40:578
-0.014,-0.302,9.709,0,0,0,12337,2021-01-15 18:59:40:588
-0.014,-0.302,9.709,0,0,0,12347,2021-01-15 18:59:40:598
-0.014,-0.302,9.709,0,0,0,12357,2021-01-15 18:59:40:608
-0.012,-0.294,9.735,0,0,0,12372,2021-01-15 18:59:40:623
-0.012,-0.294,9.735,0,0,0,12377,2021-01-15 18:59:40:628
-0.012,-0.294,9.735,0,0,0,12388,2021-01-15 18:59:40:639
-0.012,-0.294,9.735,0,0,0,12397,2021-01-15 18:59:40:648
-0.012,-0.294,9.735,0,0,0,12407,2021-01-15 18:59:40:658
-0.012,-0.294,9.735,0,0,0,12417,2021-01-15 18:59:40:668
-0.012,-0.304,9.735,0,0,0,12427,2021-01-15 18:59:40:678
-0.012,-0.304,9.735,0,0,0,12437,2021-01-15 18:59:40:688
-0.012,-0.304,9.735,0,0,0,12448,2021-01-15 18:59:40:699
-0.012,-0.304,9.735,0,0,0,12459,2021-01-15 18:59:40:710
-0.012,-0.304,9.735,0,0,0,12467,2021-01-15 18:59:40:718
-0.012,-0.304,9.735,0,0,0,12477,2021-01-15 18:59:40:728
-0.002,-0.306,9.709,0,0,0,12487,2021-01-15 18:59:40:738
-0.002,-0.306,9.709,0,0,0,12497,2021-01-15 18:59:40:748
-0.002,-0.306,9.709,0,0,0,12507,2021-01-15 18:59:40:758
-0.002,-0.306,9.709,0,0,0,12517,2021-01-15 18:59:40:768
-0.002,-0.306,9.709,0,0,0,12527,2021-01-15 18:59:40:778
-0.002,-0.306,9.709,0,0,0,12537,2021-01-15 18:59:40:788
-0.005,-0.297,9.706,0,0,0,12547,2021-01-15 18:59:40:798
-0.005,-0.297,9.706,0,0,0,12557,2021-01-15 18:59:40:808
-0.005,-0.297,9.706,0,0,0,12567,2021-01-15 18:59:40:818
-0.005,-0.297,9.706,0,0,0,12577,2021-01-15 18:59:40:828
-0.005,-0.297,9.706,0,0,0,12587,2021-01-15 18:59:40:838
-0.005,-0.297,9.706,0,0,0,12598,2021-01-15 18:59:40:849
-0.005,-0.294,9.721,0,0,0,12608,2021-01-15 18:59:40:859
-0.005,-0.294,9.721,0,0,0,12617,2021-01-15 18:59:40:868
-0.005,-0.294,9.721,0,0,0,12627,2021-01-15 18:59:40:878
-0.005,-0.294,9.721,0,0,0,12637,2021-01-15 18:59:40:888
-0.005,-0.294,9.721,0,0,0,12649,2021-01-15 18:59:40:900
-0.005,-0.294,9.721,0,0,0,12659,2021-01-15 18:59:40:910
0.005,-0.29,9.711,0,0,0,12667,2021-01-15 18:59:40:918
0.005,-0.29,9.711,0,0,0,12677,2021-01-15 18:59:40:928
0.005,-0.29,9.711,0,0,0,12687,2021-01-15 18:59:40:938
0.005,-0.29,9.711,0,0,0,12697,2021-01-15 18:59:40:948
0.005,-0.29,9.711,0,0,0,12708,2021-01-15 18:59:40:959
0.005,-0.29,9.711,0,0,0,12717,2021-01-15 18:59:40:968
-0.007,-0.314,9.73,0,0,0,12728,2021-01-15 18:59:40:979
-0.007,-0.314,9.73,0,0,0,12737,2021-01-15 18:59:40:988
-0.007,-0.314,9.73,0,0,0,12748,2021-01-15 18:59:40:999
-0.007,-0.314,9.73,0,0,0,12757,2021-01-15 18:59:41:008
-0.007,-0.314,9.73,0,0,0,12768,2021-01-15 18:59:41:019
-0.007,-0.314,9.73,0,0,0,12778,2021-01-15 18:59:41:029
-0.038,-0.294,9.718,0,0,0,12788,2021-01-15 18:59:41:039
-0.038,-0.294,9.718,0,0,0,12797,2021-01-15 18:59:41:048
-0.038,-0.294,9.718,0,0,0,12810,2021-01-15 18:59:41:061
-0.038,-0.294,9.718,0,0,0,12817,2021-01-15 18:59:41:068
-0.038,-0.294,9.718,0,0,0,12828,2021-01-15 18:59:41:079
-0.038,-0.294,9.718,0,0,0,12839,2021-01-15 18:59:41:090
-0.024,-0.287,9.718,0,0,0,12848,2021-01-15 18:59:41:099
-0.024,-0.287,9.718,0,0,0,12857,2021-01-15 18:59:41:108
-0.024,-0.287,9.718,0,0,0,12867,2021-01-15 18:59:41:118
-0.024,-0.287,9.718,0,0,0,12878,2021-01-15 18:59:41:129
-0.024,-0.287,9.718,0,0,0,12887,2021-01-15 18:59:41:138
-0.024,-0.287,9.718,0,0,0,12897,2021-01-15 18:59:41:148
-0.01,-0.314,9.711,0,0,0,12907,2021-01-15 18:59:41:158
-0.01,-0.314,9.711,0,0,0,12917,2021-01-15 18:59:41:168
-0.01,-0.314,9.711,0,0,0,12927,2021-01-15 18:59:41:178
-0.01,-0.314,9.711,0,0,0,12937,2021-01-15 18:59:41:188
-0.01,-0.314,9.711,0,0,0,12948,2021-01-15 18:59:41:199
-0.01,-0.314,9.711,0,0,0,12958,2021-01-15 18:59:41:209
-0.014,-0.314,9.699,0,0,0,12967,2021-01-15 18:59:41:218
-0.014,-0.314,9.699,0,0,0,12978,2021-01-15 18:59:41:229
-0.014,-0.314,9.699,0,0,0,12987,2021-01-15 18:59:41:238
-0.014,-0.314,9.699,0,0,0,12997,2021-01-15 18:59:41:248
-0.014,-0.314,9.699,0,0,0,13007,2021-01-15 18:59:41:258
-0.014,-0.314,9.699,0,0,0,13017,2021-01-15 18:59:41:268
-0.002,-0.309,9.702,0,0,0,13028,2021-01-15 18:59:41:279
-0.002,-0.309,9.702,0,0,0,13037,2021-01-15 18:59:41:288
-0.002,-0.309,9.702,0,0,0,13047,2021-01-15 18:59:41:298
-0.002,-0.309,9.702,0,0,0,13059,2021-01-15 18:59:41:310
-0.002,-0.309,9.702,0,0,0,13068,2021-01-15 18:59:41:319
-0.002,-0.309,9.702,0,0,0,13077,2021-01-15 18:59:41:328
-0.019,-0.304,9.73,0,0,0,13087,2021-01-15 18:59:41:338
-0.019,-0.304,9.73,0,0,0,13098,2021-01-15 18:59:41:349
-0.019,-0.304,9.73,0,0,0,13108,2021-01-15 18:59:41:359
-0.019,-0.304,9.73,0,0,0,13117,2021-01-15 18:59:41:368
-0.019,-0.304,9.73,0,0,0,13127,2021-01-15 18:59:41:378
-0.019,-0.304,9.73,0,0,0,13137,2021-01-15 18:59:41:388
-0.022,-0.285,9.718,0,0,0,13147,2021-01-15 18:59:41:398
-0.022,-0.285,9.718,0,0,0,13157,2021-01-15 18:59:41:408
-0.022,-0.285,9.718,0,0,0,13167,2021-01-15 18:59:41:418
-0.022,-0.285,9.718,0,0,0,13177,2021-01-15 18:59:41:428
-0.022,-0.285,9.718,0,0,0,13187,2021-01-15 18:59:41:438
-0.022,-0.285,9.718,0,0,0,13197,2021-01-15 18:59:41:448
0.005,-0.326,9.716,0,0,0,13208,2021-01-15 18:59:41:459
0.005,-0.326,9.716,0,0,0,13217,2021-01-15 18:59:41:468
0.005,-0.326,9.716,0,0,0,13227,2021-01-15 18:59:41:478
0.005,-0.326,9.716,0,0,0,13237,2021-01-15 18:59:41:488
0.005,-0.326,9.716,0,0,0,13247,2021-01-15 18:59:41:498
0.005,-0.326,9.716,0,0,0,13257,2021-01-15 18:59:41:508
-0.014,-0.299,9.726,0,0,0,13267,2021-01-15 18:59:41:518
-0.014,-0.299,9.726,0,0,0,13278,2021-01-15 18:59:41:529
-0.014,-0.299,9.726,0,0,0,13288,2021-01-15 18:59:41:539
-0.014,-0.299,9.726,0,0,0,13297,2021-01-15 18:59:41:548
-0.014,-0.299,9.726,0,0,0,13307,2021-01-15 18:59:41:558
-0.014,-0.299,9.726,0,0,0,13317,2021-01-15 18:59:41:568
0,-0.309,9.699,0,0,0,13327,2021-01-15 18:59:41:578
0,-0.309,9.699,0,0,0,13337,2021-01-15 18:59:41:588
0,-0.309,9.699,0,0,0,13347,2021-01-15 18:59:41:598
0,-0.309,9.699,0,0,0,13357,2021-01-15 18:59:41:608
0,-0.309,9.699,0,0,0,13368,2021-01-15 18:59:41:619
0,-0.309,9.699,0,0,0,13377,2021-01-15 18:59:41:628
-0.019,-0.304,9.709,0,0,0,13387,2021-01-15 18:59:41:638
-0.019,-0.304,9.709,0,0,0,13398,2021-01-15 18:59:41:649
-0.019,-0.304,9.709,0,0,0,13407,2021-01-15 18:59:41:658
-0.019,-0.304,9.709,0,0,0,13417,2021-01-15 18:59:41:668
-0.019,-0.304,9.709,0,0,0,13430,2021-01-15 18:59:41:681
-0.019,-0.304,9.709,0,0,0,13437,2021-01-15 18:59:41:688
-0.007,-0.304,9.716,0,0,0,13447,2021-01-15 18:59:41:698
-0.007,-0.304,9.716,0,0,0,13457,2021-01-15 18:59:41:708
-0.007,-0.304,9.716,0,0,0,13467,2021-01-15 18:59:41:718
-0.007,-0.304,9.716,0,0,0,13478,2021-01-15 18:59:41:729
-0.007,-0.304,9.716,0,0,0,13489,2021-01-15 18:59:41:740
-0.007,-0.304,9.716,0,0,0,13498,2021-01-15 18:59:41:749
-0.014,-0.311,9.73,0,0,0,13508,2021-01-15 18:59:41:759
-0.014,-0.311,9.73,0,0,0,13517,2021-01-15 18:59:41:768
-0.014,-0.311,9.73,0,0,0,13527,2021-01-15 18:59:41:778
-0.014,-0.311,9.73,0,0,0,13538,2021-01-15 18:59:41:789
-0.014,-0.311,9.73,0,0,0,13547,2021-01-15 18:59:41:798
-0.014,-0.311,9.73,0,0,0,13559,2021-01-15 18:59:41:810
-0.014,-0.302,9.718,0,0,0,13567,2021-01-15 18:59:41:818
-0.014,-0.302,9.718,0,0,0,13579,2021-01-15 18:59:41:830
-0.014,-0.302,9.718,0,0,0,13587,2021-01-15 18:59:41:838
-0.014,-0.302,9.718,0,0,0,13597,2021-01-15 18:59:41:848
-0.014,-0.302,9.718,0,0,0,13607,2021-01-15 18:59:41:858
-0.014,-0.302,9.718,0,0,0,13617,2021-01-15 18:59:41:868
-0.019,-0.294,9.716,0,0,0,13627,2021-01-15 18:59:41:878
-0.019,-0.294,9.716,0,0,0,13638,2021-01-15 18:59:41:889
-0.019,-0.294,9.716,0,0,0,13647,2021-01-15 18:59:41:898
-0.019,-0.294,9.716,0,0,0,13658,2021-01-15 18:59:41:909
-0.019,-0.294,9.716,0,0,0,13668,2021-01-15 18:59:41:919
-0.019,-0.294,9.716,0,0,0,13677,2021-01-15 18:59:41:928
-0.031,-0.304,9.73,0,0,0,13688,2021-01-15 18:59:41:939
-0.031,-0.304,9.73,0,0,0,13700,2021-01-15 18:59:41:951
-0.031,-0.304,9.73,0,0,0,13708,2021-01-15 18:59:41:959
-0.031,-0.304,9.73,0,0,0,13717,2021-01-15 18:59:41:968
-0.031,-0.304,9.73,0,0,0,13727,2021-01-15 18:59:41:978
-0.031,-0.304,9.73,0,0,0,13737,2021-01-15 18:59:41:988
-0.022,-0.306,9.714,0,0,0,13747,2021-01-15 18:59:41:998
-0.022,-0.306,9.714,0,0,0,13757,2021-01-15 18:59:42:008
-0.022,-0.306,9.714,0,0,0,13767,2021-01-15 18:59:42:018
-0.022,-0.306,9.714,0,0,0,13777,2021-01-15 18:59:42:028
-0.022,-0.306,9.714,0,0,0,13787,2021-01-15 18:59:42:038
-0.022,-0.306,9.714,0,0,0,13797,2021-01-15 18:59:42:048
-0.012,-0.306,9.723,0,0,0,13807,2021-01-15 18:59:42:058
-0.012,-0.306,9.723,0,0,0,13825,2021-01-15 18:59:42:076
-0.012,-0.306,9.723,0,0,0,13827,2021-01-15 18:59:42:078
-0.012,-0.306,9.723,0,0,0,13837,2021-01-15 18:59:42:088
-0.012,-0.306,9.723,0,0,0,13847,2021-01-15 18:59:42:098
-0.012,-0.306,9.723,0,0,0,13857,2021-01-15 18:59:42:108
-0.014,-0.309,9.716,0,0,0,13870,2021-01-15 18:59:42:121
-0.014,-0.309,9.716,0,0,0,13877,2021-01-15 18:59:42:128
-0.014,-0.309,9.716,0,0,0,13887,2021-01-15 18:59:42:138
-0.014,-0.309,9.716,0,0,0,13898,2021-01-15 18:59:42:149
-0.014,-0.309,9.716,0,0,0,13907,2021-01-15 18:59:42:158
-0.014,-0.309,9.716,0,0,0,13917,2021-01-15 18:59:42:168
-0.022,-0.306,9.718,0,0,0,13927,2021-01-15 18:59:42:178
-0.022,-0.306,9.718,0,0,0,13937,2021-01-15 18:59:42:188
-0.022,-0.306,9.718,0,0,0,13950,2021-01-15 18:59:42:201
-0.022,-0.306,9.718,0,0,0,13958,2021-01-15 18:59:42:209
-0.022,-0.306,9.718,0,0,0,13967,2021-01-15 18:59:42:218
-0.022,-0.306,9.718,0,0,0,13977,2021-01-15 18:59:42:228
-0.017,-0.297,9.716,0,0,0,13987,2021-01-15 18:59:42:238
-0.017,-0.297,9.716,0,0,0,13998,2021-01-15 18:59:42:249
-0.017,-0.297,9.716,0,0,0,14008,2021-01-15 18:59:42:259
-0.017,-0.297,9.716,0,0,0,14017,2021-01-15 18:59:42:268
-0.017,-0.297,9.716,0,0,0,14027,2021-01-15 18:59:42:278
-0.017,-0.297,9.716,0,0,0,14038,2021-01-15 18:59:42:289
-0.01,-0.292,9.714,0,0,0,14047,2021-01-15 18:59:42:298
-0.01,-0.292,9.714,0,0,0,14057,2021-01-15 18:59:42:308
-0.01,-0.292,9.714,0,0,0,14068,2021-01-15 18:59:42:319
-0.01,-0.292,9.714,0,0,0,14077,2021-01-15 18:59:42:328
-0.01,-0.292,9.714,0,0,0,14087,2021-01-15 18:59:42:338
-0.01,-0.292,9.714,0,0,0,14101,2021-01-15 18:59:42:352
-0.01,-0.306,9.721,0,0,0,14107,2021-01-15 18:59:42:358
-0.01,-0.306,9.721,0,0,0,14117,2021-01-15 18:59:42:368
-0.01,-0.306,9.721,0,0,0,14127,2021-01-15 18:59:42:378
-0.01,-0.306,9.721,0,0,0,14137,2021-01-15 18:59:42:388
-0.01,-0.306,9.721,0,0,0,14147,2021-01-15 18:59:42:398
-0.01,-0.306,9.721,0,0,0,14157,2021-01-15 18:59:42:408
-0.019,-0.306,9.709,0,0,0,14171,2021-01-15 18:59:42:422
-0.019,-0.306,9.709,0,0,0,14177,2021-01-15 18:59:42:428
-0.019,-0.306,9.709,0,0,0,14187,2021-01-15 18:59:42:438
-0.019,-0.306,9.709,0,0,0,14197,2021-01-15 18:59:42:448
-0.019,-0.306,9.709,0,0,0,14207,2021-01-15 18:59:42:458
-0.019,-0.306,9.709,0,0,0,14218,2021-01-15 18:59:42:469
-0.029,-0.316,9.733,0,0,0,14228,2021-01-15 18:59:42:479
-0.029,-0.316,9.733,0,0,0,14237,2021-01-15 18:59:42:488
-0.029,-0.316,9.733,0,0,0,14247,2021-01-15 18:59:42:498
-0.029,-0.316,9.733,0,0,0,14257,2021-01-15 18:59:42:508
-0.029,-0.316,9.733,0,0,0,14267,2021-01-15 18:59:42:518
-0.029,-0.316,9.733,0,0,0,14277,2021-01-15 18:59:42:528
-0.012,-0.302,9.716,0,0,0,14288,2021-01-15 18:59:42:539
-0.012,-0.302,9.716,0,0,0,14303,2021-01-15 18:59:42:554
-0.012,-0.302,9.716,0,0,0,14307,2021-01-15 18:59:42:558
-0.012,-0.302,9.716,0,0,0,14318,2021-01-15 18:59:42:569
-0.012,-0.302,9.716,0,0,0,14330,2021-01-15 18:59:42:581
-0.012,-0.302,9.716,0,0,0,14337,2021-01-15 18:59:42:588
-0.024,-0.302,9.728,0,0,0,14351,2021-01-15 18:59:42:602
-0.024,-0.302,9.728,0,0,0,14358,2021-01-15 18:59:42:609
-0.024,-0.302,9.728,0,0,0,14369,2021-01-15 18:59:42:620
-0.024,-0.302,9.728,0,0,0,14377,2021-01-15 18:59:42:628
-0.024,-0.302,9.728,0,0,0,14388,2021-01-15 18:59:42:639
-0.024,-0.302,9.728,0,0,0,14397,2021-01-15 18:59:42:648
-0.017,-0.309,9.718,0,0,0,14407,2021-01-15 18:59:42:658
-0.017,-0.309,9.718,0,0,0,14418,2021-01-15 18:59:42:669
-0.017,-0.309,9.718,0,0,0,14428,2021-01-15 18:59:42:679
-0.017,-0.309,9.718,0,0,0,14438,2021-01-15 18:59:42:689
-0.017,-0.309,9.718,0,0,0,14448,2021-01-15 18:59:42:699
-0.017,-0.309,9.718,0,0,0,14459,2021-01-15 18:59:42:710
-0.029,-0.302,9.711,0,0,0,14467,2021-01-15 18:59:42:718
-0.029,-0.302,9.711,0,0,0,14494,2021-01-15 18:59:42:745
-0.029,-0.302,9.711,0,0,0,14497,2021-01-15 18:59:42:748
-0.029,-0.302,9.711,0,0,0,14508,2021-01-15 18:59:42:759
-0.029,-0.302,9.711,0,0,0,14508,2021-01-15 18:59:42:759
-0.029,-0.302,9.711,0,0,0,14518,2021-01-15 18:59:42:769
-0.026,-0.285,9.721,0,0,0,14527,2021-01-15 18:59:42:778
-0.026,-0.285,9.721,0,0,0,14537,2021-01-15 18:59:42:788
-0.026,-0.285,9.721,0,0,0,14547,2021-01-15 18:59:42:798
-0.026,-0.285,9.721,0,0,0,14558,2021-01-15 18:59:42:809
-0.026,-0.285,9.721,0,0,0,14567,2021-01-15 18:59:42:818
-0.026,-0.285,9.721,0,0,0,14577,2021-01-15 18:59:42:828
-0.007,-0.29,9.714,0,0,0,14587,2021-01-15 18:59:42:838
-0.007,-0.29,9.714,0,0,0,14597,2021-01-15 18:59:42:848
-0.007,-0.29,9.714,0,0,0,14608,2021-01-15 18:59:42:859
-0.007,-0.29,9.714,0,0,0,14621,2021-01-15 18:59:42:872
-0.007,-0.29,9.714,0,0,0,14628,2021-01-15 18:59:42:879
-0.007,-0.29,9.714,0,0,0,14641,2021-01-15 18:59:42:892
-0.026,-0.316,9.716,0,0,0,14648,2021-01-15 18:59:42:899
-0.026,-0.316,9.716,0,0,0,14657,2021-01-15 18:59:42:908
-0.026,-0.316,9.716,0,0,0,14667,2021-01-15 18:59:42:918
-0.026,-0.316,9.716,0,0,0,14677,2021-01-15 18:59:42:928
-0.026,-0.316,9.716,0,0,0,14687,2021-01-15 18:59:42:938
-0.026,-0.316,9.716,0,0,0,14698,2021-01-15 18:59:42:949
-0.019,-0.311,9.706,0,0,0,14708,2021-01-15 18:59:42:959
-0.019,-0.311,9.706,0,0,0,14717,2021-01-15 18:59:42:968
-0.019,-0.311,9.706,0,0,0,14727,2021-01-15 18:59:42:978
-0.019,-0.311,9.706,0,0,0,14740,2021-01-15 18:59:42:991
-0.019,-0.311,9.706,0,0,0,14747,2021-01-15 18:59:42:998
-0.019,-0.311,9.706,0,0,0,14757,2021-01-15 18:59:43:008
-0.014,-0.294,9.728,0,0,0,14770,2021-01-15 18:59:43:021
-0.014,-0.294,9.728,0,0,0,14777,2021-01-15 18:59:43:028
-0.014,-0.294,9.728,0,0,0,14787,2021-01-15 18:59:43:038
-0.014,-0.294,9.728,0,0,0,14797,2021-01-15 18:59:43:048
-0.014,-0.294,9.728,0,0,0,14807,2021-01-15 18:59:43:058
-0.014,-0.294,9.728,0,0,0,14817,2021-01-15 18:59:43:068
-0.014,-0.294,9.728,0,0,0,14827,2021-01-15 18:59:43:078
0,-0.316,9.723,0,0,0,14837,2021-01-15 18:59:43:088
0,-0.316,9.723,0,0,0,14847,2021-01-15 18:59:43:098
0,-0.316,9.723,0,0,0,14857,2021-01-15 18:59:43:108
0,-0.316,9.723,0,0,0,14869,2021-01-15 18:59:43:120
0,-0.316,9.723,0,0,0,14878,2021-01-15 18:59:43:129
-0.012,-0.304,9.714,0,0,0,14887,2021-01-15 18:59:43:138
-0.012,-0.304,9.714,0,0,0,14897,2021-01-15 18:59:43:148
-0.012,-0.304,9.714,0,0,0,14907,2021-01-15 18:59:43:158
-0.012,-0.304,9.714,0,0,0,14917,2021-01-15 18:59:43:168
-0.012,-0.304,9.714,0,0,0,14927,2021-01-15 18:59:43:178
-0.012,-0.304,9.714,0,0,0,14937,2021-01-15 18:59:43:188
-0.029,-0.304,9.735,0,0,0,14947,2021-01-15 18:59:43:198
-0.029,-0.304,9.735,0,0,0,14957,2021-01-15 18:59:43:208
-0.029,-0.304,9.735,0,0,0,14967,2021-01-15 18:59:43:218
-0.029,-0.304,9.735,0,0,0,14977,2021-01-15 18:59:43:228
-0.029,-0.304,9.735,0,0,0,14989,2021-01-15 18:59:43:240
-0.029,-0.304,9.735,0,0,0,14998,2021-01-15 18:59:43:249
0.002,-0.309,9.738,0,0,0,15007,2021-01-15 18:59:43:258
0.002,-0.309,9.738,0,0,0,15017,2021-01-15 18:59:43:268
0.002,-0.309,9.738,0,0,0,15027,2021-01-15 18:59:43:278
0.002,-0.309,9.738,0,0,0,15038,2021-01-15 18:59:43:289
0.002,-0.309,9.738,0,0,0,15048,2021-01-15 18:59:43:299
0.002,-0.309,9.738,0,0,0,15057,2021-01-15 18:59:43:308
-0.036,-0.297,9.726,0,0,0,15067,2021-01-15 18:59:43:318
-0.036,-0.297,9.726,0,0,0,15077,2021-01-15 18:59:43:328
-0.036,-0.297,9.726,0,0,0,15087,2021-01-15 18:59:43:338
-0.036,-0.297,9.726,0,0,0,15100,2021-01-15 18:59:43:351
-0.036,-0.297,9.726,0,0,0,15107,2021-01-15 18:59:43:358
-0.036,-0.297,9.726,0,0,0,15117,2021-01-15 18:59:43:368
-0.014,-0.299,9.728,0,0,0,15127,2021-01-15 18:59:43:378
-0.014,-0.299,9.728,0,0,0,15137,2021-01-15 18:59:43:388
-0.014,-0.299,9.728,0,0,0,15147,2021-01-15 18:59:43:398
-0.014,-0.299,9.728,0,0,0,15157,2021-01-15 18:59:43:408
-0.014,-0.299,9.728,0,0,0,15167,2021-01-15 18:59:43:418
-0.014,-0.299,9.728,0,0,0,15177,2021-01-15 18:59:43:428
-0.014,-0.304,9.726,0,0,0,15187,2021-01-15 18:59:43:438
-0.014,-0.304,9.726,0,0,0,15198,2021-01-15 18:59:43:449
-0.014,-0.304,9.726,0,0,0,15207,2021-01-15 18:59:43:458
-0.014,-0.304,9.726,0,0,0,15217,2021-01-15 18:59:43:468
-0.014,-0.304,9.726,0,0,0,15228,2021-01-15 18:59:43:479
-0.014,-0.304,9.726,0,0,0,15237,2021-01-15 18:59:43:488
-0.012,-0.29,9.73,0,0,0,15249,2021-01-15 18:59:43:500
-0.012,-0.29,9.73,0,0,0,15257,2021-01-15 18:59:43:508
-0.012,-0.29,9.73,0,0,0,15267,2021-01-15 18:59:43:518
-0.012,-0.29,9.73,0,0,0,15277,2021-01-15 18:59:43:528
-0.012,-0.29,9.73,0,0,0,15287,2021-01-15 18:59:43:538
-0.012,-0.29,9.73,0,0,0,15297,2021-01-15 18:59:43:548
-0.017,-0.309,9.723,0,0,0,15307,2021-01-15 18:59:43:558
-0.017,-0.309,9.723,0,0,0,15317,2021-01-15 18:59:43:568
-0.017,-0.309,9.723,0,0,0,15328,2021-01-15 18:59:43:579
-0.017,-0.309,9.723,0,0,0,15338,2021-01-15 18:59:43:589
-0.017,-0.309,9.723,0,0,0,15347,2021-01-15 18:59:43:598
-0.017,-0.309,9.723,0,0,0,15357,2021-01-15 18:59:43:608
-0.024,-0.302,9.728,0,0,0,15368,2021-01-15 18:59:43:619
-0.024,-0.302,9.728,0,0,0,15377,2021-01-15 18:59:43:628
-0.024,-0.302,9.728,0,0,0,15389,2021-01-15 18:59:43:640
-0.024,-0.302,9.728,0,0,0,15399,2021-01-15 18:59:43:650
-0.024,-0.302,9.728,0,0,0,15407,2021-01-15 18:59:43:658
-0.024,-0.302,9.728,0,0,0,15417,2021-01-15 18:59:43:668
-0.026,-0.294,9.733,0,0,0,15427,2021-01-15 18:59:43:678
-0.026,-0.294,9.733,0,0,0,15437,2021-01-15 18:59:43:688
-0.026,-0.294,9.733,0,0,0,15447,2021-01-15 18:59:43:698
-0.026,-0.294,9.733,0,0,0,15458,2021-01-15 18:59:43:709
-0.026,-0.294,9.733,0,0,0,15468,2021-01-15 18:59:43:719
-0.026,-0.294,9.733,0,0,0,15477,2021-01-15 18:59:43:728
-0.024,-0.302,9.726,0,0,0,15487,2021-01-15 18:59:43:738
-0.024,-0.302,9.726,0,0,0,15498,2021-01-15 18:59:43:749
-0.024,-0.302,9.726,0,0,0,15507,2021-01-15 18:59:43:758
-0.024,-0.302,9.726,0,0,0,15517,2021-01-15 18:59:43:768
-0.024,-0.302,9.726,0,0,0,15527,2021-01-15 18:59:43:778
-0.024,-0.302,9.726,0,0,0,15537,2021-01-15 18:59:43:788
-0.024,-0.311,9.726,0,0,0,15547,2021-01-15 18:59:43:798
-0.024,-0.311,9.726,0,0,0,15557,2021-01-15 18:59:43:808
-0.024,-0.311,9.726,0,0,0,15567,2021-01-15 18:59:43:818
-0.024,-0.311,9.726,0,0,0,15577,2021-01-15 18:59:43:828
-0.024,-0.311,9.726,0,0,0,15587,2021-01-15 18:59:43:838
-0.024,-0.311,9.726,0,0,0,15597,2021-01-15 18:59:43:848
0.007,-0.294,9.718,0,0,0,15607,2021-01-15 18:59:43:858
0.007,-0.294,9.718,0,0,0,15617,2021-01-15 18:59:43:868
0.007,-0.294,9.718,0,0,0,15628,2021-01-15 18:59:43:879
0.007,-0.294,9.718,0,0,0,15638,2021-01-15 18:59:43:889
0.007,-0.294,9.718,0,0,0,15647,2021-01-15 18:59:43:898
0.007,-0.294,9.718,0,0,0,15657,2021-01-15 18:59:43:908
-0.022,-0.304,9.709,0,0,0,15671,2021-01-15 18:59:43:922
-0.022,-0.304,9.709,0,0,0,15677,2021-01-15 18:59:43:928
-0.022,-0.304,9.709,0,0,0,15687,2021-01-15 18:59:43:938
-0.022,-0.304,9.709,0,0,0,15697,2021-01-15 18:59:43:948
-0.022,-0.304,9.709,0,0,0,15707,2021-01-15 18:59:43:958
-0.022,-0.304,9.709,0,0,0,15717,2021-01-15 18:59:43:968
-0.002,-0.304,9.718,0,0,0,15728,2021-01-15 18:59:43:979
-0.002,-0.304,9.718,0,0,0,15737,2021-01-15 18:59:43:988
-0.002,-0.304,9.718,0,0,0,15747,2021-01-15 18:59:43:998
-0.002,-0.304,9.718,0,0,0,15757,2021-01-15 18:59:44:008
-0.002,-0.304,9.718,0,0,0,15767,2021-01-15 18:59:44:018
-0.002,-0.304,9.718,0,0,0,15777,2021-01-15 18:59:44:028
-0.017,-0.297,9.721,0,0,0,15787,2021-01-15 18:59:44:038
-0.017,-0.297,9.721,0,0,0,15797,2021-01-15 18:59:44:048
-0.017,-0.297,9.721,0,0,0,15807,2021-01-15 18:59:44:058
-0.017,-0.297,9.721,0,0,0,15818,2021-01-15 18:59:44:069
-0.017,-0.297,9.721,0,0,0,15828,2021-01-15 18:59:44:079
-0.017,-0.297,9.721,0,0,0,15838,2021-01-15 18:59:44:089
-0.014,-0.294,9.723,0,0,0,15850,2021-01-15 18:59:44:101
-0.014,-0.294,9.723,0,0,0,15857,2021-01-15 18:59:44:108
-0.014,-0.294,9.723,0,0,0,15867,2021-01-15 18:59:44:118
-0.014,-0.294,9.723,0,0,0,15877,2021-01-15 18:59:44:128
-0.014,-0.294,9.723,0,0,0,15887,2021-01-15 18:59:44:138
-0.014,-0.294,9.723,0,0,0,15897,2021-01-15 18:59:44:148
-0.014,-0.304,9.73,0,0,0,15907,2021-01-15 18:59:44:158
-0.014,-0.304,9.73,0,0,0,15917,2021-01-15 18:59:44:168
-0.014,-0.304,9.73,0,0,0,15927,2021-01-15 18:59:44:178
-0.014,-0.304,9.73,0,0,0,15938,2021-01-15 18:59:44:189
-0.014,-0.304,9.73,0,0,0,15947,2021-01-15 18:59:44:198
-0.014,-0.304,9.73,0,0,0,15957,2021-01-15 18:59:44:208
-0.026,-0.292,9.721,0,0,0,15967,2021-01-15 18:59:44:218
-0.026,-0.292,9.721,0,0,0,15977,2021-01-15 18:59:44:228
-0.026,-0.292,9.721,0,0,0,15987,2021-01-15 18:59:44:238
-0.026,-0.292,9.721,0,0,0,15997,2021-01-15 18:59:44:248
-0.026,-0.292,9.721,0,0,0,16007,2021-01-15 18:59:44:258
-0.026,-0.292,9.721,0,0,0,16017,2021-01-15 18:59:44:268
-0.012,-0.292,9.723,0,0,0,16027,2021-01-15 18:59:44:278
-0.012,-0.292,9.723,0,0,0,16038,2021-01-15 18:59:44:289
-0.012,-0.292,9.723,0,0,0,16047,2021-01-15 18:59:44:298
-0.012,-0.292,9.723,0,0,0,16057,2021-01-15 18:59:44:308
-0.012,-0.292,9.723,0,0,0,16067,2021-01-15 18:59:44:318
-0.012,-0.292,9.723,0,0,0,16077,2021-01-15 18:59:44:328
-0.002,-0.314,9.718,0,0,0,16090,2021-01-15 18:59:44:341
-0.002,-0.314,9.718,0,0,0,16097,2021-01-15 18:59:44:348
-0.002,-0.314,9.718,0,0,0,16107,2021-01-15 18:59:44:358
-0.002,-0.314,9.718,0,0,0,16118,2021-01-15 18:59:44:369
-0.002,-0.314,9.718,0,0,0,16127,2021-01-15 18:59:44:378
-0.002,-0.314,9.718,0,0,0,16137,2021-01-15 18:59:44:388
-0.014,-0.287,9.747,0,0,0,16147,2021-01-15 18:59:44:398
-0.014,-0.287,9.747,0,0,0,16158,2021-01-15 18:59:44:409
-0.014,-0.287,9.747,0,0,0,16167,2021-01-15 18:59:44:418
-0.014,-0.287,9.747,0,0,0,16177,2021-01-15 18:59:44:428
-0.014,-0.287,9.747,0,0,0,16187,2021-01-15 18:59:44:438
-0.014,-0.287,9.747,0,0,0,16197,2021-01-15 18:59:44:448
-0.026,-0.287,9.716,0,0,0,16207,2021-01-15 18:59:44:458
-0.026,-0.287,9.716,0,0,0,16219,2021-01-15 18:59:44:470
-0.026,-0.287,9.716,0,0,0,16227,2021-01-15 18:59:44:478
-0.026,-0.287,9.716,0,0,0,16241,2021-01-15 18:59:44:492
-0.026,-0.287,9.716,0,0,0,16248,2021-01-15 18:59:44:499
-0.026,-0.287,9.716,0,0,0,16262,2021-01-15 18:59:44:513
-0.002,-0.29,9.716,0,0,0,16267,2021-01-15 18:59:44:518
-0.002,-0.29,9.716,0,0,0,16278,2021-01-15 18:59:44:529
-0.002,-0.29,9.716,0,0,0,16287,2021-01-15 18:59:44:538
-0.002,-0.29,9.716,0,0,0,16297,2021-01-15 18:59:44:548
-0.002,-0.29,9.716,0,0,0,16307,2021-01-15 18:59:44:558
-0.002,-0.29,9.716,0,0,0,16317,2021-01-15 18:59:44:568
-0.034,-0.294,9.709,0,0,0,16327,2021-01-15 18:59:44:578
-0.034,-0.294,9.709,0,0,0,16338,2021-01-15 18:59:44:589
-0.034,-0.294,9.709,0,0,0,16347,2021-01-15 18:59:44:598
-0.034,-0.294,9.709,0,0,0,16358,2021-01-15 18:59:44:609
-0.034,-0.294,9.709,0,0,0,16367,2021-01-15 18:59:44:618
-0.034,-0.294,9.709,0,0,0,16378,2021-01-15 18:59:44:629
0,-0.311,9.706,0,0,0,16387,2021-01-15 18:59:44:638
0,-0.311,9.706,0,0,0,16398,2021-01-15 18:59:44:649
0,-0.311,9.706,0,0,0,16408,2021-01-15 18:59:44:659
0,-0.311,9.706,0,0,0,16419,2021-01-15 18:59:44:670
0,-0.311,9.706,0,0,0,16427,2021-01-15 18:59:44:678
0,-0.311,9.706,0,0,0,16437,2021-01-15 18:59:44:688
-0.019,-0.302,9.711,0,0,0,16447,2021-01-15 18:59:44:698
-0.019,-0.302,9.711,0,0,0,16458,2021-01-15 18:59:44:709
-0.019,-0.302,9.711,0,0,0,16469,2021-01-15 18:59:44:720
-0.019,-0.302,9.711,0,0,0,16477,2021-01-15 18:59:44:728
-0.019,-0.302,9.711,0,0,0,16487,2021-01-15 18:59:44:738
-0.019,-0.302,9.711,0,0,0,16497,2021-01-15 18:59:44:748
-0.014,-0.292,9.706,0,0,0,16507,2021-01-15 18:59:44:758
-0.014,-0.292,9.706,0,0,0,16517,2021-01-15 18:59:44:768
-0.014,-0.292,9.706,0,0,0,16528,2021-01-15 18:59:44:779
-0.014,-0.292,9.706,0,0,0,16537,2021-01-15 18:59:44:788
-0.014,-0.292,9.706,0,0,0,16547,2021-01-15 18:59:44:798
-0.014,-0.292,9.706,0,0,0,16557,2021-01-15 18:59:44:808
-0.026,-0.299,9.73,0,0,0,16567,2021-01-15 18:59:44:818
-0.026,-0.299,9.73,0,0,0,16577,2021-01-15 18:59:44:828
-0.026,-0.299,9.73,0,0,0,16588,2021-01-15 18:59:44:839
-0.026,-0.299,9.73,0,0,0,16597,2021-01-15 18:59:44:848
-0.026,-0.299,9.73,0,0,0,16607,2021-01-15 18:59:44:858
-0.026,-0.299,9.73,0,0,0,16617,2021-01-15 18:59:44:868
-0.019,-0.287,9.73,0,0,0,16627,2021-01-15 18:59:44:878
-0.019,-0.287,9.73,0,0,0,16637,2021-01-15 18:59:44:888
-0.019,-0.287,9.73,0,0,0,16647,2021-01-15 18:59:44:898
-0.019,-0.287,9.73,0,0,0,16657,2021-01-15 18:59:44:908
-0.019,-0.287,9.73,0,0,0,16667,2021-01-15 18:59:44:918
-0.019,-0.287,9.73,0,0,0,16677,2021-01-15 18:59:44:928
-0.007,-0.311,9.728,0,0,0,16689,2021-01-15 18:59:44:940
-0.007,-0.311,9.728,0,0,0,16697,2021-01-15 18:59:44:948
-0.007,-0.311,9.728,0,0,0,16707,2021-01-15 18:59:44:958
-0.007,-0.311,9.728,0,0,0,16717,2021-01-15 18:59:44:968
-0.007,-0.311,9.728,0,0,0,16727,2021-01-15 18:59:44:978
-0.007,-0.311,9.728,0,0,0,16737,2021-01-15 18:59:44:988
0.002,-0.302,9.721,0,0,0,16750,2021-01-15 18:59:45:001
0.002,-0.302,9.721,0,0,0,16758,2021-01-15 18:59:45:009
0.002,-0.302,9.721,0,0,0,16770,2021-01-15 18:59:45:021
0.002,-0.302,9.721,0,0,0,16777,2021-01-15 18:59:45:028
0.002,-0.302,9.721,0,0,0,16787,2021-01-15 18:59:45:038
0.002,-0.302,9.721,0,0,0,16797,2021-01-15 18:59:45:048
-0.024,-0.302,9.733,0,0,0,16808,2021-01-15 18:59:45:059
-0.024,-0.302,9.733,0,0,0,16817,2021-01-15 18:59:45:068
-0.024,-0.302,9.733,0,0,0,16833,2021-01-15 18:59:45:084
-0.024,-0.302,9.733,0,0,0,16837,2021-01-15 18:59:45:088
-0.024,-0.302,9.733,0,0,0,16848,2021-01-15 18:59:45:099
-0.024,-0.302,9.733,0,0,0,16857,2021-01-15 18:59:45:108
0,-0.297,9.728,0,0,0,16868,2021-01-15 18:59:45:119
0,-0.297,9.728,0,0,0,16877,2021-01-15 18:59:45:128
0,-0.297,9.728,0,0,0,16887,2021-01-15 18:59:45:138
0,-0.297,9.728,0,0,0,16897,2021-01-15 18:59:45:148
0,-0.297,9.728,0,0,0,16907,2021-01-15 18:59:45:158
0,-0.297,9.728,0,0,0,16918,2021-01-15 18:59:45:169
-0.007,-0.311,9.721,0,0,0,16927,2021-01-15 18:59:45:178
-0.007,-0.311,9.721,0,0,0,16938,2021-01-15 18:59:45:189
-0.007,-0.311,9.721,0,0,0,16947,2021-01-15 18:59:45:198
-0.007,-0.311,9.721,0,0,0,16958,2021-01-15 18:59:45:209
-0.007,-0.311,9.721,0,0,0,16967,2021-01-15 18:59:45:218
-0.007,-0.311,9.721,0,0,0,16978,2021-01-15 18:59:45:229
-0.022,-0.306,9.714,0,0,0,16987,2021-01-15 18:59:45:238
-0.022,-0.306,9.714,0,0,0,16997,2021-01-15 18:59:45:248
-0.022,-0.306,9.714,0,0,0,17008,2021-01-15 18:59:45:259
-0.022,-0.306,9.714,0,0,0,17017,2021-01-15 18:59:45:268
-0.022,-0.306,9.714,0,0,0,17028,2021-01-15 18:59:45:279
-0.022,-0.306,9.714,0,0,0,17038,2021-01-15 18:59:45:289
-0.029,-0.292,9.73,0,0,0,17050,2021-01-15 18:59:45:301
-0.029,-0.292,9.73,0,0,0,17057,2021-01-15 18:59:45:308
-0.029,-0.292,9.73,0,0,0,17067,2021-01-15 18:59:45:318
-0.029,-0.292,9.73,0,0,0,17077,2021-01-15 18:59:45:328
-0.029,-0.292,9.73,0,0,0,17089,2021-01-15 18:59:45:340
-0.029,-0.292,9.73,0,0,0,17097,2021-01-15 18:59:45:348
-0.029,-0.314,9.714,0,0,0,17107,2021-01-15 18:59:45:358
-0.029,-0.314,9.714,0,0,0,17117,2021-01-15 18:59:45:368
-0.029,-0.314,9.714,0,0,0,17128,2021-01-15 18:59:45:379
-0.029,-0.314,9.714,0,0,0,17137,2021-01-15 18:59:45:388
-0.029,-0.314,9.714,0,0,0,17147,2021-01-15 18:59:45:398
-0.029,-0.314,9.714,0,0,0,17158,2021-01-15 18:59:45:409
-0.026,-0.294,9.728,0,0,0,17167,2021-01-15 18:59:45:418
-0.026,-0.294,9.728,0,0,0,17177,2021-01-15 18:59:45:428
-0.026,-0.294,9.728,0,0,0,17188,2021-01-15 18:59:45:439
-0.026,-0.294,9.728,0,0,0,17197,2021-01-15 18:59:45:448
-0.026,-0.294,9.728,0,0,0,17207,2021-01-15 18:59:45:458
-0.026,-0.294,9.728,0,0,0,17217,2021-01-15 18:59:45:468
-0.017,-0.294,9.721,0,0,0,17227,2021-01-15 18:59:45:478
-0.017,-0.294,9.721,0,0,0,17237,2021-01-15 18:59:45:488
-0.017,-0.294,9.721,0,-0.001,0,17247,2021-01-15 18:59:45:498
-0.017,-0.294,9.721,0,-0.001,0,17257,2021-01-15 18:59:45:508
-0.017,-0.294,9.721,0,-0.001,0,17267,2021-01-15 18:59:45:518
-0.017,-0.294,9.721,0,-0.001,0,17278,2021-01-15 18:59:45:529
0.002,-0.299,9.733,0,-0.001,0,17288,2021-01-15 18:59:45:539
0.002,-0.299,9.733,0,-0.001,0,17299,2021-01-15 18:59:45:550
0.002,-0.299,9.733,0,-0.001,0,17307,2021-01-15 18:59:45:558
0.002,-0.299,9.733,0,-0.001,0,17318,2021-01-15 18:59:45:569
0.002,-0.299,9.733,0,-0.001,0,17327,2021-01-15 18:59:45:578
0.002,-0.299,9.733,0,-0.001,0,17337,2021-01-15 18:59:45:588
-0.034,-0.309,9.692,0,-0.001,0,17348,2021-01-15 18:59:45:599
-0.034,-0.309,9.692,0,-0.001,0,17357,2021-01-15 18:59:45:608
-0.034,-0.309,9.692,0,-0.001,0,17368,2021-01-15 18:59:45:619
-0.034,-0.309,9.692,0,0,0,17377,2021-01-15 18:59:45:628
-0.034,-0.309,9.692,0,0,0,17395,2021-01-15 18:59:45:646
-0.034,-0.309,9.692,0,0,0,17398,2021-01-15 18:59:45:649
-0.012,-0.302,9.716,0,0,0,17407,2021-01-15 18:59:45:658
-0.012,-0.302,9.716,0,0,0,17417,2021-01-15 18:59:45:668
-0.012,-0.302,9.716,0,0,0,17427,2021-01-15 18:59:45:678
-0.012,-0.302,9.716,0,0,0,17437,2021-01-15 18:59:45:688
-0.012,-0.302,9.716,0,0,0,17447,2021-01-15 18:59:45:698
-0.012,-0.302,9.716,0,0,0,17457,2021-01-15 18:59:45:708
-0.002,-0.299,9.733,0,0,0,17467,2021-01-15 18:59:45:718
-0.002,-0.299,9.733,0,0,0,17478,2021-01-15 18:59:45:729
-0.002,-0.299,9.733,0,0,0,17487,2021-01-15 18:59:45:738
-0.002,-0.299,9.733,0,0,0,17497,2021-01-15 18:59:45:748
-0.002,-0.299,9.733,0,0,0,17507,2021-01-15 18:59:45:758
-0.002,-0.299,9.733,0,0,0,17518,2021-01-15 18:59:45:769
-0.002,-0.299,9.733,0,0,0,17527,2021-01-15 18:59:45:778
-0.017,-0.302,9.721,0,0,0,17537,2021-01-15 18:59:45:788
-0.017,-0.302,9.721,0,0,0,17547,2021-01-15 18:59:45:798
-0.017,-0.302,9.721,0,0,0,17558,2021-01-15 18:59:45:809
-0.017,-0.302,9.721,0,0,0,17568,2021-01-15 18:59:45:819
-0.017,-0.302,9.721,0,0,0,17577,2021-01-15 18:59:45:828
-0.007,-0.292,9.718,0,0,0,17587,2021-01-15 18:59:45:838
-0.007,-0.292,9.718,0,0,0,17597,2021-01-15 18:59:45:848
-0.007,-0.292,9.718,0,0,0,17607,2021-01-15 18:59:45:858
-0.007,-0.292,9.718,0,0,0,17618,2021-01-15 18:59:45:869
-0.007,-0.292,9.718,0,0,0,17627,2021-01-15 18:59:45:878
-0.007,-0.292,9.718,0,0,0,17637,2021-01-15 18:59:45:888
-0.017,-0.304,9.711,0,0,0,17648,2021-01-15 18:59:45:899
-0.017,-0.304,9.711,0,0,0,17658,2021-01-15 18:59:45:909
-0.017,-0.304,9.711,0,0,0,17667,2021-01-15 18:59:45:918
-0.017,-0.304,9.711,0,0,0,17677,2021-01-15 18:59:45:928
-0.017,-0.304,9.711,0,0,0,17687,2021-01-15 18:59:45:938
-0.017,-0.304,9.711,0,0,0,17705,2021-01-15 18:59:45:956
-0.024,-0.294,9.733,0,0,0,17707,2021-01-15 18:59:45:958
-0.024,-0.294,9.733,0,0,0,17718,2021-01-15 18:59:45:969
-0.024,-0.294,9.733,0,0,0,17727,2021-01-15 18:59:45:978
-0.024,-0.294,9.733,0,0,0,17740,2021-01-15 18:59:45:991
-0.024,-0.294,9.733,0,0,0,17748,2021-01-15 18:59:45:999
-0.024,-0.294,9.733,0,0,0,17757,2021-01-15 18:59:46:008
-0.01,-0.297,9.716,0,0,0,17767,2021-01-15 18:59:46:018
-0.01,-0.297,9.716,0,0,0,17778,2021-01-15 18:59:46:029
-0.01,-0.297,9.716,0,0,0,17787,2021-01-15 18:59:46:038
-0.01,-0.297,9.716,0,0,0,17797,2021-01-15 18:59:46:048
-0.01,-0.297,9.716,0,0,0,17807,2021-01-15 18:59:46:058
-0.01,-0.297,9.716,0,0,0,17817,2021-01-15 18:59:46:068
-0.012,-0.328,9.711,0,0,0,17828,2021-01-15 18:59:46:079
-0.012,-0.328,9.711,0,0,0,17837,2021-01-15 18:59:46:088
-0.012,-0.328,9.711,0,0,0,17848,2021-01-15 18:59:46:099
-0.012,-0.328,9.711,0,0,0,17857,2021-01-15 18:59:46:108
-0.012,-0.328,9.711,0,0,0,17867,2021-01-15 18:59:46:118
-0.012,-0.328,9.711,0,0,0,17877,2021-01-15 18:59:46:128
-0.029,-0.299,9.726,0,0,0,17887,2021-01-15 18:59:46:138
-0.029,-0.299,9.726,0,0,0,17897,2021-01-15 18:59:46:148
-0.029,-0.299,9.726,0,0,0,17909,2021-01-15 18:59:46:160
-0.029,-0.299,9.726,0,0,0,17917,2021-01-15 18:59:46:168
-0.029,-0.299,9.726,0,0,0,17927,2021-01-15 18:59:46:178
-0.029,-0.299,9.726,0,0,0,17938,2021-01-15 18:59:46:189
0.007,-0.316,9.697,0,0,0,17947,2021-01-15 18:59:46:198
0.007,-0.316,9.697,0,0,0,17957,2021-01-15 18:59:46:208
0.007,-0.316,9.697,0,0,0,17967,2021-01-15 18:59:46:218
0.007,-0.316,9.697,0,0,0,17978,2021-01-15 18:59:46:229
0.007,-0.316,9.697,0,0,0,17987,2021-01-15 18:59:46:238
0.007,-0.316,9.697,0,0,0,17997,2021-01-15 18:59:46:248
-0.01,-0.299,9.728,0,0,0,18008,2021-01-15 18:59:46:259
-0.01,-0.299,9.728,0,0,0,18017,2021-01-15 18:59:46:268
-0.01,-0.299,9.728,0,0,0,18027,2021-01-15 18:59:46:278
-0.01,-0.299,9.728,0,0,0,18037,2021-01-15 18:59:46:288
-0.01,-0.299,9.728,0,0,0,18047,2021-01-15 18:59:46:298
-0.01,-0.299,9.728,0,0,0,18057,2021-01-15 18:59:46:308
0.01,-0.294,9.716,0,0,0,18067,2021-01-15 18:59:46:318
0.01,-0.294,9.716,0,0,0,18077,2021-01-15 18:59:46:328
0.01,-0.294,9.716,0,0,0,18090,2021-01-15 18:59:46:341
0.01,-0.294,9.716,0,0,0,18097,2021-01-15 18:59:46:348
0.01,-0.294,9.716,0,0,0,18107,2021-01-15 18:59:46:358
0.01,-0.294,9.716,0,0,0,18117,2021-01-15 18:59:46:368
-0.034,-0.314,9.723,0,0,0,18127,2021-01-15 18:59:46:378
-0.034,-0.314,9.723,0,0,0,18137,2021-01-15 18:59:46:388
-0.034,-0.314,9.723,0,0,0,18147,2021-01-15 18:59:46:398
-0.034,-0.314,9.723,0,0,0,18157,2021-01-15 18:59:46:408
-0.034,-0.314,9.723,0,0,0,18167,2021-01-15 18:59:46:418
-0.034,-0.314,9.723,0,0,0,18177,2021-01-15 18:59:46:428
-0.005,-0.302,9.714,0,0,0,18187,2021-01-15 18:59:46:438
-0.005,-0.302,9.714,0,0,0,18198,2021-01-15 18:59:46:449
-0.005,-0.302,9.714,0,0,0,18207,2021-01-15 18:59:46:458
-0.005,-0.302,9.714,0,0,0,18218,2021-01-15 18:59:46:469
-0.005,-0.302,9.714,0,0,0,18227,2021-01-15 18:59:46:478
-0.005,-0.302,9.714,0,0,0,18237,2021-01-15 18:59:46:488
-0.002,-0.309,9.706,0,0,0,18247,2021-01-15 18:59:46:498
-0.002,-0.309,9.706,0,0,0,18257,2021-01-15 18:59:46:508
-0.002,-0.309,9.706,0,0,0,18267,2021-01-15 18:59:46:518
-0.002,-0.309,9.706,0,0,0,18277,2021-01-15 18:59:46:528
-0.002,-0.309,9.706,0,0,0,18289,2021-01-15 18:59:46:540
-0.002,-0.309,9.706,0,0,0,18297,2021-01-15 18:59:46:548
-0.019,-0.299,9.745,0,0,0,18307,2021-01-15 18:59:46:558
-0.019,-0.299,9.745,0,0,0,18317,2021-01-15 18:59:46:568
-0.019,-0.299,9.745,0,-0.001,0,18327,2021-01-15 18:59:46:578
-0.019,-0.299,9.745,0,-0.001,0,18340,2021-01-15 18:59:46:591
-0.019,-0.299,9.745,0,-0.001,0,18347,2021-01-15 18:59:46:598
-0.012,-0.287,9.718,0,-0.001,0,18362,2021-01-15 18:59:46:613
-0.012,-0.287,9.718,0,-0.001,0,18369,2021-01-15 18:59:46:620
-0.012,-0.287,9.718,0,-0.001,0,18380,2021-01-15 18:59:46:631
-0.012,-0.287,9.718,0,-0.001,0,18388,2021-01-15 18:59:46:639
-0.012,-0.287,9.718,0,-0.001,0,18398,2021-01-15 18:59:46:649
-0.012,-0.287,9.718,0,-0.001,0,18408,2021-01-15 18:59:46:659
-0.012,-0.287,9.718,0,-0.001,0,18418,2021-01-15 18:59:46:669
-0.01,-0.314,9.718,0,-0.001,0,18428,2021-01-15 18:59:46:679
-0.01,-0.314,9.718,0,-0.001,0,18437,2021-01-15 18:59:46:688
-0.01,-0.314,9.718,0,0,0,18447,2021-01-15 18:59:46:698
-0.01,-0.314,9.718,0,0,0,18464,2021-01-15 18:59:46:715
-0.01,-0.314,9.718,0,0,0,18468,2021-01-15 18:59:46:719
-0.01,-0.314,9.718,0,0,0,18477,2021-01-15 18:59:46:728
-0.01,-0.314,9.718,0,0,0,18487,2021-01-15 18:59:46:738
-0.017,-0.297,9.73,0,0,0,18500,2021-01-15 18:59:46:751
-0.017,-0.297,9.73,0,0,0,18507,2021-01-15 18:59:46:758
-0.017,-0.297,9.73,0,0,0,18518,2021-01-15 18:59:46:769
-0.017,-0.297,9.73,0,0,0,18528,2021-01-15 18:59:46:779
-0.017,-0.297,9.73,0,0,0,18538,2021-01-15 18:59:46:789
-0.014,-0.292,9.73,0,0,0,18547,2021-01-15 18:59:46:798
-0.014,-0.292,9.73,0,0,0,18557,2021-01-15 18:59:46:808
-0.014,-0.292,9.73,0,0,0,18568,2021-01-15 18:59:46:819
-0.014,-0.292,9.73,0,0,0,18577,2021-01-15 18:59:46:828
-0.014,-0.292,9.73,0,0,0,18587,2021-01-15 18:59:46:838
-0.014,-0.292,9.73,0,0,0,18598,2021-01-15 18:59:46:849
-0.017,-0.302,9.718,0,0,0,18608,2021-01-15 18:59:46:859
-0.017,-0.302,9.718,0,0,0,18617,2021-01-15 18:59:46:868
-0.017,-0.302,9.718,0,0,0,18628,2021-01-15 18:59:46:879
-0.017,-0.302,9.718,0,0,0,18637,2021-01-15 18:59:46:888
-0.017,-0.302,9.718,0,0,0,18647,2021-01-15 18:59:46:898
-0.017,-0.302,9.718,0,0,0,18657,2021-01-15 18:59:46:908
-0.005,-0.292,9.714,0,0,0,18667,2021-01-15 18:59:46:918
-0.005,-0.292,9.714,0,0,0,18677,2021-01-15 18:59:46:928
-0.005,-0.292,9.714,0,0,0,18687,2021-01-15 18:59:46:938
-0.005,-0.292,9.714,0,0,0,18698,2021-01-15 18:59:46:949
-0.005,-0.292,9.714,0,0,0,18707,2021-01-15 18:59:46:958
-0.005,-0.292,9.714,0,0,0,18718,2021-01-15 18:59:46:969
-0.007,-0.299,9.716,0,0,0,18727,2021-01-15 18:59:46:978
-0.007,-0.299,9.716,0,0,0,18739,2021-01-15 18:59:46:990
-0.007,-0.299,9.716,0,0,0,18747,2021-01-15 18:59:46:998
-0.007,-0.299,9.716,0,0,0,18757,2021-01-15 18:59:47:008
-0.007,-0.299,9.716,0,0,0,18768,2021-01-15 18:59:47:019
-0.007,-0.299,9.716,0,0,0,18778,2021-01-15 18:59:47:029
-0.019,-0.304,9.728,0,0,0,18795,2021-01-15 18:59:47:046
-0.019,-0.304,9.728,0,0,0,18797,2021-01-15 18:59:47:048
-0.019,-0.304,9.728,0,0,0,18810,2021-01-15 18:59:47:061
-0.019,-0.304,9.728,0,0,0,18818,2021-01-15 18:59:47:069
-0.019,-0.304,9.728,0,0,0,18827,2021-01-15 18:59:47:078
-0.019,-0.304,9.728,0,0,0,18837,2021-01-15 18:59:47:088
0.005,-0.287,9.723,0,0,0,18848,2021-01-15 18:59:47:099
0.005,-0.287,9.723,0,0,0,18858,2021-01-15 18:59:47:109
0.005,-0.287,9.723,0,0,0,18867,2021-01-15 18:59:47:118
0.005,-0.287,9.723,0,0,0,18878,2021-01-15 18:59:47:129
0.005,-0.287,9.723,0,0,0,18888,2021-01-15 18:59:47:139
0.005,-0.287,9.723,0,0,0,18898,2021-01-15 18:59:47:149
-0.01,-0.294,9.726,0,0,0,18908,2021-01-15 18:59:47:159
-0.01,-0.294,9.726,0,0,0,18919,2021-01-15 18:59:47:170
-0.01,-0.294,9.726,0,0,0,18929,2021-01-15 18:59:47:180
-0.01,-0.294,9.726,0,0,0,18937,2021-01-15 18:59:47:188
-0.01,-0.294,9.726,0,0,0,18948,2021-01-15 18:59:47:199
-0.01,-0.294,9.726,0,0,0,18957,2021-01-15 18:59:47:208
-0.005,-0.311,9.74,0,0,0,18967,2021-01-15 18:59:47:218
-0.005,-0.311,9.74,0,0,0,18977,2021-01-15 18:59:47:228
-0.005,-0.311,9.74,0,0,0,18988,2021-01-15 18:59:47:239
-0.005,-0.311,9.74,0,0,0,18997,2021-01-15 18:59:47:248
-0.005,-0.311,9.74,0,0,0,19007,2021-01-15 18:59:47:258
-0.005,-0.311,9.74,0,0,0,19018,2021-01-15 18:59:47:269
-0.034,-0.304,9.73,0,0,0,19029,2021-01-15 18:59:47:280
-0.034,-0.304,9.73,0,0,0,19037,2021-01-15 18:59:47:288
-0.034,-0.304,9.73,0,0,0,19050,2021-01-15 18:59:47:301
-0.034,-0.304,9.73,0,0,0,19058,2021-01-15 18:59:47:309
-0.034,-0.304,9.73,0,0,0,19067,2021-01-15 18:59:47:318
-0.034,-0.304,9.73,0,0,0,19077,2021-01-15 18:59:47:328
-0.017,-0.292,9.721,0,0,0,19087,2021-01-15 18:59:47:338
-0.017,-0.292,9.721,0,0,0,19097,2021-01-15 18:59:47:348
-0.017,-0.292,9.721,0,0,0,19107,2021-01-15 18:59:47:358
-0.017,-0.292,9.721,0,0,0,19118,2021-01-15 18:59:47:369
-0.017,-0.292,9.721,0,0,0,19127,2021-01-15 18:59:47:378
-0.017,-0.292,9.721,0,0,0,19137,2021-01-15 18:59:47:388
-0.026,-0.294,9.718,0,0,0,19147,2021-01-15 18:59:47:398
-0.026,-0.294,9.718,0,0,0,19157,2021-01-15 18:59:47:408
-0.026,-0.294,9.718,0,0,0,19168,2021-01-15 18:59:47:419
-0.026,-0.294,9.718,0,0,0,19177,2021-01-15 18:59:47:428
-0.026,-0.294,9.718,0,0,0,19187,2021-01-15 18:59:47:438
-0.026,-0.294,9.718,0,0,0,19197,2021-01-15 18:59:47:448
0.01,-0.297,9.723,0,0,0,19207,2021-01-15 18:59:47:458
0.01,-0.297,9.723,0,0,0,19218,2021-01-15 18:59:47:469
0.01,-0.297,9.723,0,0,0,19227,2021-01-15 18:59:47:478
0.01,-0.297,9.723,0,0,0,19237,2021-01-15 18:59:47:488
0.01,-0.297,9.723,0,0,0,19247,2021-01-15 18:59:47:498
0.01,-0.297,9.723,0,0,0,19257,2021-01-15 18:59:47:508
0.005,-0.318,9.721,0,0,0,19268,2021-01-15 18:59:47:519
0.005,-0.318,9.721,0,0,0,19278,2021-01-15 18:59:47:529
0.005,-0.318,9.721,0,0,0,19288,2021-01-15 18:59:47:539
0.005,-0.318,9.721,0,0,0,19298,2021-01-15 18:59:47:549
0.005,-0.318,9.721,0,0,0,19307,2021-01-15 18:59:47:558
0.005,-0.318,9.721,0,0,0,19317,2021-01-15 18:59:47:568
-0.024,-0.299,9.728,0,0,0,19327,2021-01-15 18:59:47:578
-0.024,-0.299,9.728,0,0,0,19337,2021-01-15 18:59:47:588
-0.024,-0.299,9.728,0,0,0,19347,2021-01-15 18:59:47:598
-0.024,-0.299,9.728,0,0,0,19359,2021-01-15 18:59:47:610
-0.024,-0.299,9.728,0,0,0,19367,2021-01-15 18:59:47:618
-0.024,-0.299,9.728,0,0,0,19377,2021-01-15 18:59:47:628
-0.014,-0.306,9.718,0,0,0,19387,2021-01-15 18:59:47:638
-0.014,-0.306,9.718,0,0,0,19397,2021-01-15 18:59:47:648
-0.014,-0.306,9.718,0,0,0,19407,2021-01-15 18:59:47:658
-0.014,-0.306,9.718,0,0,0,19418,2021-01-15 18:59:47:669
-0.014,-0.306,9.718,0,0,0,19427,2021-01-15 18:59:47:678
-0.014,-0.306,9.718,0,0,0,19437,2021-01-15 18:59:47:688
-0.005,-0.306,9.74,0,0,0,19447,2021-01-15 18:59:47:698
-0.005,-0.306,9.74,0,0,0,19457,2021-01-15 18:59:47:708
-0.005,-0.306,9.74,0,0,0,19467,2021-01-15 18:59:47:718
-0.005,-0.306,9.74,0,0,0,19478,2021-01-15 18:59:47:729
-0.005,-0.306,9.74,0,0,0,19487,2021-01-15 18:59:47:738
-0.005,-0.306,9.74,0,0,0,19497,2021-01-15 18:59:47:748
-0.019,-0.292,9.728,0,0,0,19507,2021-01-15 18:59:47:758
-0.019,-0.292,9.728,0,0,0,19518,2021-01-15 18:59:47:769
-0.019,-0.292,9.728,0,0,0,19529,2021-01-15 18:59:47:780
-0.019,-0.292,9.728,0,0,0,19536,2021-01-15 18:59:47:787
-0.019,-0.292,9.728,0,0,0,19548,2021-01-15 18:59:47:799
-0.019,-0.292,9.728,0,0,0,19558,2021-01-15 18:59:47:809
-0.029,-0.297,9.709,0,0,0,19567,2021-01-15 18:59:47:818
-0.029,-0.297,9.709,0,0,0,19577,2021-01-15 18:59:47:828
-0.029,-0.297,9.709,0,0,0,19587,2021-01-15 18:59:47:838
-0.029,-0.297,9.709,0,0,0,19597,2021-01-15 18:59:47:848
-0.029,-0.297,9.709,0,0,0,19607,2021-01-15 18:59:47:858
-0.029,-0.297,9.709,0,0,0,19618,2021-01-15 18:59:47:869
-0.014,-0.304,9.721,0,0,0,19627,2021-01-15 18:59:47:878
-0.014,-0.304,9.721,0,0,0,19638,2021-01-15 18:59:47:889
-0.014,-0.304,9.721,0,0,0,19648,2021-01-15 18:59:47:899
-0.014,-0.304,9.721,0,0,0,19657,2021-01-15 18:59:47:908
-0.014,-0.304,9.721,0,0,0,19667,2021-01-15 18:59:47:918
-0.014,-0.304,9.721,0,0,0,19678,2021-01-15 18:59:47:929
-0.017,-0.311,9.711,0,0,0,19687,2021-01-15 18:59:47:938
-0.017,-0.311,9.711,0,0,0,19697,2021-01-15 18:59:47:948
-0.017,-0.311,9.711,0,0,0,19710,2021-01-15 18:59:47:961
-0.017,-0.311,9.711,0,0,0,19717,2021-01-15 18:59:47:968
-0.017,-0.311,9.711,0,0,0,19727,2021-01-15 18:59:47:978
-0.017,-0.311,9.711,0,0,0,19737,2021-01-15 18:59:47:988
-0.019,-0.299,9.706,0,0,0,19747,2021-01-15 18:59:47:998
-0.019,-0.299,9.706,0,0,0,19757,2021-01-15 18:59:48:008
-0.019,-0.299,9.706,0,0,0,19767,2021-01-15 18:59:48:018
-0.019,-0.299,9.706,0,0,0,19778,2021-01-15 18:59:48:029
-0.019,-0.299,9.706,0,0,0,19788,2021-01-15 18:59:48:039
-0.019,-0.299,9.706,0,0,0,19797,2021-01-15 18:59:48:048
-0.022,-0.302,9.718,0,0,0,19808,2021-01-15 18:59:48:059
-0.022,-0.302,9.718,0,0,0,19817,2021-01-15 18:59:48:068
-0.022,-0.302,9.718,0,0,0,19828,2021-01-15 18:59:48:079
-0.022,-0.302,9.718,0,0,0,19837,2021-01-15 18:59:48:088
-0.022,-0.302,9.718,0,0,0,19847,2021-01-15 18:59:48:098
-0.022,-0.302,9.718,0,0,0,19857,2021-01-15 18:59:48:108
-0.017,-0.302,9.733,0,0,0,19868,2021-01-15 18:59:48:119
-0.017,-0.302,9.733,0,0,0,19877,2021-01-15 18:59:48:128
-0.017,-0.302,9.733,0,0,0,19888,2021-01-15 18:59:48:139
-0.017,-0.302,9.733,0,0,0,19898,2021-01-15 18:59:48:149
-0.017,-0.302,9.733,0,0,0,19910,2021-01-15 18:59:48:161
-0.017,-0.302,9.733,0,0,0,19918,2021-01-15 18:59:48:169
-0.022,-0.294,9.73,0,0,0,19929,2021-01-15 18:59:48:180
-0.022,-0.294,9.73,0,0,0,19937,2021-01-15 18:59:48:188
-0.022,-0.294,9.73,0,0,0,19947,2021-01-15 18:59:48:198
-0.022,-0.294,9.73,0,0,0,19957,2021-01-15 18:59:48:208
-0.022,-0.294,9.73,0,0,0,19967,2021-01-15 18:59:48:218
-0.022,-0.294,9.73,0,0,0,19978,2021-01-15 18:59:48:229
-0.024,-0.302,9.733,0,0,0,19988,2021-01-15 18:59:48:239
-0.024,-0.302,9.733,0,0,0,19997,2021-01-15 18:59:48:248
-0.024,-0.302,9.733,0,0,0,20009,2021-01-15 18:59:48:260
-0.024,-0.302,9.733,0,0,0,20017,2021-01-15 18:59:48:268
-0.024,-0.302,9.733,0,0,0,20027,2021-01-15 18:59:48:278
-0.024,-0.302,9.733,0,0,0,20037,2021-01-15 18:59:48:288
-0.014,-0.304,9.718,0,0,0,20047,2021-01-15 18:59:48:298
-0.014,-0.304,9.718,0,0,0,20057,2021-01-15 18:59:48:308
-0.014,-0.304,9.718,0,0,0,20067,2021-01-15 18:59:48:318
-0.014,-0.304,9.718,0,0,0,20077,2021-01-15 18:59:48:328
-0.014,-0.304,9.718,0,0,0,20087,2021-01-15 18:59:48:338
-0.014,-0.304,9.718,0,0,0,20098,2021-01-15 18:59:48:349
-0.007,-0.302,9.716,0,0,0,20109,2021-01-15 18:59:48:360
-0.007,-0.302,9.716,0,0,0,20117,2021-01-15 18:59:48:368
-0.007,-0.302,9.716,0,0,0,20130,2021-01-15 18:59:48:381
-0.007,-0.302,9.716,0,0,0,20139,2021-01-15 18:59:48:390
-0.007,-0.302,9.716,0,0,0,20147,2021-01-15 18:59:48:398
-0.007,-0.302,9.716,0,0,0,20157,2021-01-15 18:59:48:408
-0.019,-0.297,9.745,0,0,0,20168,2021-01-15 18:59:48:419
-0.019,-0.297,9.745,0,0,0,20177,2021-01-15 18:59:48:428
-0.019,-0.297,9.745,0,0,0,20188,2021-01-15 18:59:48:439
-0.019,-0.297,9.745,0,0,0,20197,2021-01-15 18:59:48:448
-0.019,-0.297,9.745,0,0,0,20207,2021-01-15 18:59:48:458
-0.019,-0.297,9.745,0,0,0,20217,2021-01-15 18:59:48:468
-0.019,-0.311,9.718,0,0,0,20230,2021-01-15 18:59:48:481
-0.019,-0.311,9.718,0,0,0,20239,2021-01-15 18:59:48:490
-0.019,-0.311,9.718,0,0,0,20252,2021-01-15 18:59:48:503
-0.019,-0.311,9.718,0,0,0,20257,2021-01-15 18:59:48:508
-0.019,-0.311,9.718,0,0,0,20268,2021-01-15 18:59:48:519
-0.019,-0.311,9.718,0,0,0,20277,2021-01-15 18:59:48:528
-0.002,-0.306,9.718,0,0,0,20287,2021-01-15 18:59:48:538
-0.002,-0.306,9.718,0,0,0,20297,2021-01-15 18:59:48:548
-0.002,-0.306,9.718,0,0,0,20310,2021-01-15 18:59:48:561
-0.002,-0.306,9.718,0,0,0,20317,2021-01-15 18:59:48:568
-0.002,-0.306,9.718,0,0,0,20327,2021-01-15 18:59:48:578
-0.002,-0.306,9.718,0,0,0,20337,2021-01-15 18:59:48:588
-0.007,-0.292,9.73,0,0,0,20347,2021-01-15 18:59:48:598
-0.007,-0.292,9.73,0,0,0,20357,2021-01-15 18:59:48:608
-0.007,-0.292,9.73,0,0.001,0,20370,2021-01-15 18:59:48:621
-0.007,-0.292,9.73,0,0.001,0,20377,2021-01-15 18:59:48:628
-0.007,-0.292,9.73,0,0.001,0,20388,2021-01-15 18:59:48:639
-0.007,-0.292,9.73,0,0.001,0,20398,2021-01-15 18:59:48:649
-0.007,-0.292,9.73,0,0.001,0,20407,2021-01-15 18:59:48:658
-0.01,-0.292,9.738,0,0.001,0,20417,2021-01-15 18:59:48:668
-0.01,-0.292,9.738,0,0.001,0,20436,2021-01-15 18:59:48:687
-0.01,-0.292,9.738,0,0.001,0,20437,2021-01-15 18:59:48:688
-0.01,-0.292,9.738,0,0.001,0,20447,2021-01-15 18:59:48:698
-0.01,-0.292,9.738,0,0.001,0,20459,2021-01-15 18:59:48:710
-0.01,-0.294,9.714,0,0.001,0,20467,2021-01-15 18:59:48:718
-0.01,-0.294,9.714,0,0.001,0,20477,2021-01-15 18:59:48:728
-0.01,-0.294,9.714,0,0,0,20487,2021-01-15 18:59:48:738
-0.01,-0.294,9.714,0,0,0,20498,2021-01-15 18:59:48:749
-0.01,-0.294,9.714,0,0,0,20507,2021-01-15 18:59:48:758
-0.01,-0.294,9.714,0,0,0,20517,2021-01-15 18:59:48:768
-0.019,-0.287,9.716,0,0,0,20527,2021-01-15 18:59:48:778
-0.019,-0.287,9.716,0,0,0,20537,2021-01-15 18:59:48:788
-0.019,-0.287,9.716,0,0,0,20547,2021-01-15 18:59:48:798
-0.019,-0.287,9.716,0,0,0,20557,2021-01-15 18:59:48:808
-0.019,-0.287,9.716,0,0,0,20567,2021-01-15 18:59:48:818
-0.019,-0.287,9.716,0,0,0,20577,2021-01-15 18:59:48:828
-0.012,-0.292,9.726,0,0,0,20587,2021-01-15 18:59:48:838
-0.012,-0.292,9.726,0,0,0,20597,2021-01-15 18:59:48:848
-0.012,-0.292,9.726,0,0,0,20607,2021-01-15 18:59:48:858
-0.012,-0.292,9.726,0,0,0,20617,2021-01-15 18:59:48:868
-0.012,-0.292,9.726,0,0,0,20627,2021-01-15 18:59:48:878
-0.019,-0.292,9.718,0,0,0,20651,2021-01-15 18:59:48:902
-0.019,-0.292,9.718,0,0,0,20654,2021-01-15 18:59:48:905
-0.019,-0.292,9.718,0,0,0,20658,2021-01-15 18:59:48:909
-0.019,-0.292,9.718,0,0,0,20668,2021-01-15 18:59:48:919
-0.019,-0.292,9.718,0,0,0,20680,2021-01-15 18:59:48:931
-0.019,-0.292,9.718,0,0,0,20687,2021-01-15 18:59:48:938
-0.019,-0.292,9.718,0,0,0,20697,2021-01-15 18:59:48:948
-0.012,-0.318,9.726,0,0,0,20707,2021-01-15 18:59:48:958
-0.012,-0.318,9.726,0,0,0,20717,2021-01-15 18:59:48:968
-0.012,-0.318,9.726,0,0,0,20727,2021-01-15 18:59:48:978
-0.012,-0.318,9.726,0,0,0,20737,2021-01-15 18:59:48:988
-0.012,-0.318,9.726,0,0,0,20748,2021-01-15 18:59:48:999
-0.012,-0.318,9.726,0,0,0,20760,2021-01-15 18:59:49:011
-0.017,-0.294,9.711,0,0,0,20767,2021-01-15 18:59:49:018
-0.017,-0.294,9.711,0,0,0,20777,2021-01-15 18:59:49:028
-0.017,-0.294,9.711,0,0,0,20788,2021-01-15 18:59:49:039
-0.017,-0.294,9.711,0,0,0,20806,2021-01-15 18:59:49:057
-0.017,-0.294,9.711,0,0,0,20808,2021-01-15 18:59:49:059
-0.017,-0.294,9.711,0,0,0,20817,2021-01-15 18:59:49:068
-0.017,-0.294,9.711,0,0,0,20827,2021-01-15 18:59:49:078
-0.002,-0.306,9.728,0,0,0,20837,2021-01-15 18:59:49:088
-0.002,-0.306,9.728,0,0,0,20848,2021-01-15 18:59:49:099
-0.002,-0.306,9.728,0,0,0,20857,2021-01-15 18:59:49:108
-0.002,-0.306,9.728,0,0,0,20871,2021-01-15 18:59:49:122
-0.002,-0.306,9.728,0,0,0,20877,2021-01-15 18:59:49:128
-0.017,-0.299,9.726,0,0,0,20887,2021-01-15 18:59:49:138
-0.017,-0.299,9.726,0,0,0,20898,2021-01-15 18:59:49:149
-0.017,-0.299,9.726,0,0,0,20907,2021-01-15 18:59:49:158
-0.017,-0.299,9.726,0,0,0,20917,2021-01-15 18:59:49:168
-0.017,-0.299,9.726,0,0,0,20927,2021-01-15 18:59:49:178
-0.017,-0.299,9.726,0,0,0,20937,2021-01-15 18:59:49:188
-0.017,-0.302,9.728,0,0,0,20947,2021-01-15 18:59:49:198
-0.017,-0.302,9.728,0,0,0,20957,2021-01-15 18:59:49:208
-0.017,-0.302,9.728,0,0,0,20966,2021-01-15 18:59:49:217
-0.017,-0.302,9.728,0,0,0,20977,2021-01-15 18:59:49:228
-0.017,-0.302,9.728,0,0,0,20987,2021-01-15 18:59:49:238
-0.017,-0.302,9.728,0,0,0,20997,2021-01-15 18:59:49:248
-0.031,-0.309,9.709,0,0,0,21007,2021-01-15 18:59:49:258
-0.031,-0.309,9.709,0,0,0,21017,2021-01-15 18:59:49:268
-0.031,-0.309,9.709,0,0,0,21027,2021-01-15 18:59:49:278
-0.031,-0.309,9.709,0,0,0,21037,2021-01-15 18:59:49:288
-0.031,-0.309,9.709,0,0,0,21047,2021-01-15 18:59:49:298
-0.031,-0.309,9.709,0,0,0,21057,2021-01-15 18:59:49:308
-0.022,-0.299,9.723,0,0,0,21067,2021-01-15 18:59:49:318
-0.022,-0.299,9.723,0,0,0,21077,2021-01-15 18:59:49:328
-0.022,-0.299,9.723,0,0,0,21087,2021-01-15 18:59:49:338
