ACCELEROMETER X (m/s²),ACCELEROMETER Y (m/s²),ACCELEROMETER Z (m/s²),GYROSCOPE X (rad/s),GYROSCOPE Y (rad/s),GYROSCOPE Z (rad/s),Time since start in ms ,YYYY-MO-DD HH-MI-SS_SSS
9.817,0.125,0.122,0,0,0,25,2021-01-15 19:02:08:278
9.817,0.125,0.122,0,0,0,35,2021-01-15 19:02:08:288
9.817,0.125,0.122,0,0,0,46,2021-01-15 19:02:08:299
9.817,0.125,0.122,0,0,0,56,2021-01-15 19:02:08:309
9.817,0.125,0.122,0,0,0,67,2021-01-15 19:02:08:320
9.817,0.125,0.122,0,0,0,76,2021-01-15 19:02:08:329
9.828,0.136,0.148,0,0,0,86,2021-01-15 19:02:08:339
9.828,0.136,0.148,0,0,0,96,2021-01-15 19:02:08:349
9.828,0.136,0.148,0,0,0,106,2021-01-15 19:02:08:359
9.828,0.136,0.148,0,0,0,115,2021-01-15 19:02:08:368
9.828,0.136,0.148,0,0,0,125,2021-01-15 19:02:08:378
9.828,0.136,0.148,0,0,0,136,2021-01-15 19:02:08:389
9.828,0.136,0.148,0,0,0,146,2021-01-15 19:02:08:399
9.805,0.12,0.132,0,0,0,156,2021-01-15 19:02:08:409
9.805,0.12,0.132,0,0,0,165,2021-01-15 19:02:08:418
9.805,0.12,0.132,0,0,0,176,2021-01-15 19:02:08:429
9.805,0.12,0.132,0,0,0,185,2021-01-15 19:02:08:438
9.805,0.12,0.132,0,0,0,195,2021-01-15 19:02:08:448
9.8,0.12,0.127,0,0,0,205,2021-01-15 19:02:08:458
9.8,0.12,0.127,0,0,0,216,2021-01-15 19:02:08:469
9.8,0.12,0.127,0,0,0,226,2021-01-15 19:02:08:479
9.8,0.12,0.127,0,0,0,236,2021-01-15 19:02:08:489
9.8,0.12,0.127,0,0,0,245,2021-01-15 19:02:08:498
9.8,0.12,0.127,0,0,0,255,2021-01-15 19:02:08:508
9.8,0.12,0.127,0,0,0,266,2021-01-15 19:02:08:519
9.836,0.125,0.156,0,0,0,278,2021-01-15 19:02:08:531
9.836,0.125,0.156,0,0,0,286,2021-01-15 19:02:08:539
9.836,0.125,0.156,0,0,0,297,2021-01-15 19:02:08:550
9.836,0.125,0.156,0,0,0,308,2021-01-15 19:02:08:561
9.836,0.125,0.156,0,0,0,316,2021-01-15 19:02:08:569
9.836,0.125,0.156,0,0,0,325,2021-01-15 19:02:08:578
9.795,0.125,0.156,0,0,0,335,2021-01-15 19:02:08:588
9.795,0.125,0.156,0,0,0,346,2021-01-15 19:02:08:599
9.795,0.125,0.156,0,0,0,356,2021-01-15 19:02:08:609
9.795,0.125,0.156,0,0,0,367,2021-01-15 19:02:08:620
9.795,0.125,0.156,0,0,0,376,2021-01-15 19:02:08:629
9.805,0.156,0.127,0.001,0,0,391,2021-01-15 19:02:08:644
9.805,0.156,0.127,0.001,0,0,395,2021-01-15 19:02:08:648
9.805,0.156,0.127,0.001,0,0,406,2021-01-15 19:02:08:659
9.805,0.156,0.127,0.001,0,0,416,2021-01-15 19:02:08:669
9.805,0.156,0.127,0.001,0,0,426,2021-01-15 19:02:08:679
9.805,0.156,0.127,0.001,0,0,436,2021-01-15 19:02:08:689
9.805,0.156,0.127,0.001,0,0,446,2021-01-15 19:02:08:699
9.826,0.136,0.148,0.001,0,0,456,2021-01-15 19:02:08:709
9.826,0.136,0.148,0.001,0,0,465,2021-01-15 19:02:08:718
9.826,0.136,0.148,0.001,0,0,476,2021-01-15 19:02:08:729
9.826,0.136,0.148,0.001,0,0,485,2021-01-15 19:02:08:738
9.826,0.136,0.148,0.001,0,0,496,2021-01-15 19:02:08:749
9.826,0.136,0.148,0.001,0,0,505,2021-01-15 19:02:08:758
9.807,0.122,0.139,0.001,0,0,515,2021-01-15 19:02:08:768
9.807,0.122,0.139,0.001,0,0,527,2021-01-15 19:02:08:780
9.807,0.122,0.139,0.001,0,0,536,2021-01-15 19:02:08:789
9.807,0.122,0.139,0.001,0,0,545,2021-01-15 19:02:08:798
9.807,0.122,0.139,0.001,0,0,556,2021-01-15 19:02:08:809
9.802,0.141,0.129,0.001,0,0,566,2021-01-15 19:02:08:819
9.802,0.141,0.129,0.001,0,0,576,2021-01-15 19:02:08:829
9.802,0.141,0.129,0.001,0,0,586,2021-01-15 19:02:08:839
9.802,0.141,0.129,0.001,0,0,599,2021-01-15 19:02:08:852
9.802,0.141,0.129,0.001,0,0,607,2021-01-15 19:02:08:860
9.802,0.141,0.129,0.001,0,0,615,2021-01-15 19:02:08:868
9.802,0.141,0.129,0.001,0,0,625,2021-01-15 19:02:08:878
9.817,0.134,0.117,0,-0.001,0,636,2021-01-15 19:02:08:889
9.817,0.134,0.117,0,-0.001,0,648,2021-01-15 19:02:08:901
9.817,0.134,0.117,0,-0.001,0,661,2021-01-15 19:02:08:914
9.817,0.134,0.117,0,-0.001,0,665,2021-01-15 19:02:08:918
9.817,0.134,0.117,0,-0.001,0,675,2021-01-15 19:02:08:928
9.809,0.122,0.117,0,-0.001,0,686,2021-01-15 19:02:08:939
9.809,0.122,0.117,0,-0.001,0,696,2021-01-15 19:02:08:949
9.809,0.122,0.117,0,-0.001,0,707,2021-01-15 19:02:08:960
9.809,0.122,0.117,0,-0.001,0,716,2021-01-15 19:02:08:969
9.809,0.122,0.117,0,-0.001,0,726,2021-01-15 19:02:08:979
9.809,0.122,0.117,0,-0.001,0,736,2021-01-15 19:02:08:989
9.824,0.127,0.12,0,0,0,752,2021-01-15 19:02:09:005
9.824,0.127,0.12,0,0,0,756,2021-01-15 19:02:09:009
9.824,0.127,0.12,0,0,0,767,2021-01-15 19:02:09:020
9.824,0.127,0.12,0,0,0,776,2021-01-15 19:02:09:029
9.824,0.127,0.12,0,0,0,786,2021-01-15 19:02:09:039
9.824,0.127,0.12,0,0,0,795,2021-01-15 19:02:09:048
9.807,0.153,0.12,0,0,0,813,2021-01-15 19:02:09:066
9.807,0.153,0.12,0,0,0,816,2021-01-15 19:02:09:069
9.807,0.153,0.12,0,0,0,828,2021-01-15 19:02:09:081
9.807,0.153,0.12,0,0,0,836,2021-01-15 19:02:09:089
9.807,0.153,0.12,0,0,0,846,2021-01-15 19:02:09:099
9.807,0.153,0.12,0,0,0,856,2021-01-15 19:02:09:109
9.807,0.153,0.12,0,0,0,866,2021-01-15 19:02:09:119
9.795,0.139,0.105,0.001,0,0,876,2021-01-15 19:02:09:129
9.795,0.139,0.105,0.001,0,0,888,2021-01-15 19:02:09:141
9.795,0.139,0.105,0.001,0,0,897,2021-01-15 19:02:09:150
9.795,0.139,0.105,0.001,0,0,906,2021-01-15 19:02:09:159
9.795,0.139,0.105,0.001,0,0,920,2021-01-15 19:02:09:173
9.802,0.134,0.113,0.001,0,0,928,2021-01-15 19:02:09:181
9.802,0.134,0.113,0.001,0,0,937,2021-01-15 19:02:09:190
9.802,0.134,0.113,0.001,0,0,945,2021-01-15 19:02:09:198
9.802,0.134,0.113,0.001,0,0,956,2021-01-15 19:02:09:209
9.802,0.134,0.113,0.001,0,0,966,2021-01-15 19:02:09:219
9.802,0.134,0.113,0.001,0,0,975,2021-01-15 19:02:09:228
9.8,0.129,0.127,0,0,0,985,2021-01-15 19:02:09:238
9.8,0.129,0.127,0,0,0,996,2021-01-15 19:02:09:249
9.8,0.129,0.127,0,0,0,1006,2021-01-15 19:02:09:259
9.8,0.129,0.127,0,0,0,1015,2021-01-15 19:02:09:268
9.8,0.129,0.127,0,0,0,1026,2021-01-15 19:02:09:279
9.8,0.129,0.127,0,0,0,1035,2021-01-15 19:02:09:288
9.797,0.122,0.115,0,0,0,1046,2021-01-15 19:02:09:299
9.797,0.122,0.115,0,0,0,1055,2021-01-15 19:02:09:308
9.797,0.122,0.115,0,0,0,1066,2021-01-15 19:02:09:319
9.797,0.122,0.115,0,0,0,1075,2021-01-15 19:02:09:328
9.797,0.122,0.115,0,0,0,1085,2021-01-15 19:02:09:338
9.797,0.122,0.115,0,0,0,1096,2021-01-15 19:02:09:349
9.797,0.127,0.122,0,0,0,1105,2021-01-15 19:02:09:358
9.797,0.127,0.122,0,0,0,1115,2021-01-15 19:02:09:368
9.797,0.127,0.122,0,0,0,1130,2021-01-15 19:02:09:383
9.797,0.127,0.122,0,0,0,1141,2021-01-15 19:02:09:394
9.797,0.127,0.122,0,0,0,1147,2021-01-15 19:02:09:400
9.797,0.127,0.122,0,0,0,1156,2021-01-15 19:02:09:409
9.797,0.127,0.122,0,0,0,1165,2021-01-15 19:02:09:418
9.805,0.132,0.117,0,0,0,1177,2021-01-15 19:02:09:430
9.805,0.132,0.117,0,0,0,1185,2021-01-15 19:02:09:438
9.805,0.132,0.117,0,0,0,1195,2021-01-15 19:02:09:448
9.805,0.132,0.117,0,0,0,1206,2021-01-15 19:02:09:459
9.805,0.132,0.117,0,0,0,1216,2021-01-15 19:02:09:469
9.797,0.148,0.103,0,0,0,1226,2021-01-15 19:02:09:479
9.797,0.148,0.103,0,0,0,1236,2021-01-15 19:02:09:489
9.797,0.148,0.103,0,0,0,1247,2021-01-15 19:02:09:500
9.797,0.148,0.103,0,0,0,1256,2021-01-15 19:02:09:509
9.797,0.148,0.103,0,0,0,1265,2021-01-15 19:02:09:518
9.797,0.148,0.103,0,0,0,1276,2021-01-15 19:02:09:529
9.797,0.127,0.093,0,0,0,1286,2021-01-15 19:02:09:539
9.797,0.127,0.093,0,0,0,1295,2021-01-15 19:02:09:548
9.797,0.127,0.093,0,0,0,1305,2021-01-15 19:02:09:558
9.797,0.127,0.093,0,0,0,1316,2021-01-15 19:02:09:569
9.797,0.127,0.093,0,0,0,1326,2021-01-15 19:02:09:579
9.797,0.127,0.093,0,0,0,1335,2021-01-15 19:02:09:588
9.797,0.127,0.093,0,0,0,1346,2021-01-15 19:02:09:599
9.814,0.146,0.096,0,0,0,1356,2021-01-15 19:02:09:609
9.814,0.146,0.096,0,0,0,1365,2021-01-15 19:02:09:618
9.814,0.146,0.096,0,0,0,1376,2021-01-15 19:02:09:629
9.814,0.146,0.096,0,0,0,1386,2021-01-15 19:02:09:639
9.814,0.146,0.096,0,0,0,1396,2021-01-15 19:02:09:649
9.812,0.127,0.096,0,0,0,1406,2021-01-15 19:02:09:659
9.812,0.127,0.096,0,0,0,1416,2021-01-15 19:02:09:669
9.812,0.127,0.096,0,0,0,1426,2021-01-15 19:02:09:679
9.812,0.127,0.096,0,0,0,1437,2021-01-15 19:02:09:690
9.812,0.127,0.096,0,0,0,1447,2021-01-15 19:02:09:700
9.812,0.127,0.096,0,0,0,1456,2021-01-15 19:02:09:709
9.819,0.127,0.108,0.001,0,0,1469,2021-01-15 19:02:09:722
9.819,0.127,0.108,0.001,0,0,1476,2021-01-15 19:02:09:729
9.819,0.127,0.108,0.001,0,0,1486,2021-01-15 19:02:09:739
9.819,0.127,0.108,0.001,0,0,1496,2021-01-15 19:02:09:749
9.819,0.127,0.108,0.001,0,0,1506,2021-01-15 19:02:09:759
9.819,0.127,0.108,0.001,0,0,1516,2021-01-15 19:02:09:769
9.819,0.127,0.108,0.001,0,0,1525,2021-01-15 19:02:09:778
9.814,0.127,0.105,0.001,0,0,1536,2021-01-15 19:02:09:789
9.814,0.127,0.105,0.001,0,0,1546,2021-01-15 19:02:09:799
9.814,0.127,0.105,0.001,0,0,1556,2021-01-15 19:02:09:809
9.814,0.127,0.105,0.001,0,0,1572,2021-01-15 19:02:09:825
9.814,0.127,0.105,0.001,0,0,1578,2021-01-15 19:02:09:831
9.814,0.136,0.086,0.001,0,0,1590,2021-01-15 19:02:09:843
9.814,0.136,0.086,0.001,0,0,1597,2021-01-15 19:02:09:850
9.814,0.136,0.086,0.001,0,0,1605,2021-01-15 19:02:09:858
9.814,0.136,0.086,0.001,0,0,1615,2021-01-15 19:02:09:868
9.814,0.136,0.086,0.001,0,0,1625,2021-01-15 19:02:09:878
9.814,0.136,0.086,0.001,0,0,1635,2021-01-15 19:02:09:888
9.797,0.151,0.11,0.001,0,0,1646,2021-01-15 19:02:09:899
9.797,0.151,0.11,0.001,0,0,1656,2021-01-15 19:02:09:909
9.797,0.151,0.11,0.001,0,0,1665,2021-01-15 19:02:09:918
9.797,0.151,0.11,0.001,0,0,1683,2021-01-15 19:02:09:936
9.797,0.151,0.11,0.001,0,0,1685,2021-01-15 19:02:09:938
9.797,0.151,0.11,0.001,0,0,1696,2021-01-15 19:02:09:949
9.817,0.134,0.11,0,0,0,1706,2021-01-15 19:02:09:959
9.817,0.134,0.11,0,0,0,1716,2021-01-15 19:02:09:969
9.817,0.134,0.11,0,0,0,1725,2021-01-15 19:02:09:978
9.817,0.134,0.11,0,0,0,1736,2021-01-15 19:02:09:989
9.817,0.134,0.11,0,0,0,1745,2021-01-15 19:02:09:998
9.817,0.134,0.11,0,0,0,1755,2021-01-15 19:02:10:008
9.817,0.134,0.11,0,0,0,1767,2021-01-15 19:02:10:020
9.802,0.139,0.115,0,0,0,1776,2021-01-15 19:02:10:029
9.802,0.139,0.115,0,0,0,1786,2021-01-15 19:02:10:039
9.802,0.139,0.115,0,0,0,1795,2021-01-15 19:02:10:048
9.802,0.139,0.115,0,0,0,1805,2021-01-15 19:02:10:058
9.802,0.139,0.115,0,0,0,1817,2021-01-15 19:02:10:070
9.812,0.122,0.084,0,0,0,1825,2021-01-15 19:02:10:078
9.812,0.122,0.084,0,0,0,1836,2021-01-15 19:02:10:089
9.812,0.122,0.084,0,0,0,1848,2021-01-15 19:02:10:101
9.812,0.122,0.084,0,0,0,1856,2021-01-15 19:02:10:109
9.812,0.122,0.084,0,0,0,1868,2021-01-15 19:02:10:121
9.812,0.122,0.084,0,0,0,1876,2021-01-15 19:02:10:129
9.805,0.117,0.089,0,0,0,1886,2021-01-15 19:02:10:139
9.805,0.117,0.089,0,0,0,1895,2021-01-15 19:02:10:148
9.805,0.117,0.089,0,0,0,1909,2021-01-15 19:02:10:162
9.805,0.117,0.089,0,0,0,1916,2021-01-15 19:02:10:169
9.805,0.117,0.089,0,0,0,1925,2021-01-15 19:02:10:178
9.805,0.117,0.089,0,0,0,1936,2021-01-15 19:02:10:189
9.805,0.117,0.089,0,0,0,1948,2021-01-15 19:02:10:201
9.814,0.158,0.105,0,0,0,1956,2021-01-15 19:02:10:209
9.814,0.158,0.105,0,0,0,1968,2021-01-15 19:02:10:221
9.814,0.158,0.105,0,0,0,1975,2021-01-15 19:02:10:228
9.814,0.158,0.105,0,0,0,1985,2021-01-15 19:02:10:238
9.814,0.158,0.105,0,0,0,1997,2021-01-15 19:02:10:250
9.8,0.141,0.101,0,0,0,2006,2021-01-15 19:02:10:259
9.8,0.141,0.101,0,0,0,2016,2021-01-15 19:02:10:269
9.8,0.141,0.101,0,0,0,2028,2021-01-15 19:02:10:281
9.8,0.141,0.101,0,0,0,2036,2021-01-15 19:02:10:289
9.8,0.141,0.101,0,0,0,2046,2021-01-15 19:02:10:299
9.8,0.141,0.101,0,0,0,2056,2021-01-15 19:02:10:309
9.8,0.141,0.101,0,0,0,2066,2021-01-15 19:02:10:319
9.824,0.141,0.11,0,0,0,2075,2021-01-15 19:02:10:328
9.824,0.141,0.11,0,0,0,2085,2021-01-15 19:02:10:338
9.824,0.141,0.11,0,0,0,2096,2021-01-15 19:02:10:349
9.824,0.141,0.11,0,0,0,2106,2021-01-15 19:02:10:359
9.824,0.141,0.11,0,0,0,2118,2021-01-15 19:02:10:371
9.824,0.141,0.11,0,0,0,2126,2021-01-15 19:02:10:379
9.809,0.125,0.101,0,0,0,2136,2021-01-15 19:02:10:389
9.809,0.125,0.101,0,0,0,2147,2021-01-15 19:02:10:400
9.809,0.125,0.101,0,0,0,2156,2021-01-15 19:02:10:409
9.809,0.125,0.101,0,0,0,2166,2021-01-15 19:02:10:419
9.809,0.125,0.101,0,0,0,2175,2021-01-15 19:02:10:428
9.8,0.148,0.079,0,0,0,2185,2021-01-15 19:02:10:438
9.8,0.148,0.079,0,0,0,2196,2021-01-15 19:02:10:449
9.8,0.148,0.079,0,0,0,2206,2021-01-15 19:02:10:459
9.8,0.148,0.079,0,0,0,2216,2021-01-15 19:02:10:469
9.8,0.148,0.079,0,0,0,2225,2021-01-15 19:02:10:478
9.8,0.148,0.079,0,0,0,2236,2021-01-15 19:02:10:489
9.8,0.148,0.079,0,0,0,2246,2021-01-15 19:02:10:499
9.795,0.139,0.079,0,0,0,2256,2021-01-15 19:02:10:509
9.795,0.139,0.079,0,0,0,2265,2021-01-15 19:02:10:518
9.795,0.139,0.079,0,0,0,2280,2021-01-15 19:02:10:533
9.795,0.139,0.079,0,0,0,2286,2021-01-15 19:02:10:539
9.795,0.139,0.079,0,0,0,2296,2021-01-15 19:02:10:549
9.812,0.136,0.101,0,0,0,2311,2021-01-15 19:02:10:564
9.812,0.136,0.101,0,0,0,2316,2021-01-15 19:02:10:569
9.812,0.136,0.101,0,0,0,2325,2021-01-15 19:02:10:578
9.812,0.136,0.101,0,0,0,2335,2021-01-15 19:02:10:588
9.812,0.136,0.101,0,0,0,2345,2021-01-15 19:02:10:598
9.812,0.136,0.101,0,0,0,2356,2021-01-15 19:02:10:609
9.821,0.144,0.091,0,0,0,2366,2021-01-15 19:02:10:619
9.821,0.144,0.091,0,0,0,2376,2021-01-15 19:02:10:629
9.821,0.144,0.091,0,0,0,2387,2021-01-15 19:02:10:640
9.821,0.144,0.091,0,0,0,2396,2021-01-15 19:02:10:649
9.821,0.144,0.091,0,0,0,2406,2021-01-15 19:02:10:659
9.821,0.144,0.091,0,0,0,2416,2021-01-15 19:02:10:669
9.8,0.127,0.108,0,0,0,2426,2021-01-15 19:02:10:679
9.8,0.127,0.108,0,0,0,2436,2021-01-15 19:02:10:689
9.8,0.127,0.108,0,0,0,2446,2021-01-15 19:02:10:699
9.8,0.127,0.108,0,0,0,2457,2021-01-15 19:02:10:710
9.8,0.127,0.108,0,0,0,2466,2021-01-15 19:02:10:719
9.8,0.127,0.108,0,0,0,2476,2021-01-15 19:02:10:729
9.8,0.127,0.108,0,0,0,2486,2021-01-15 19:02:10:739
9.824,0.117,0.12,0,0,0,2495,2021-01-15 19:02:10:748
9.824,0.117,0.12,0,0,0,2506,2021-01-15 19:02:10:759
9.824,0.117,0.12,0,0,0,2516,2021-01-15 19:02:10:769
9.824,0.117,0.12,0,0,0,2526,2021-01-15 19:02:10:779
9.824,0.117,0.12,0,0,0,2536,2021-01-15 19:02:10:789
9.824,0.117,0.12,0,0,0,2545,2021-01-15 19:02:10:798
9.819,0.132,0.103,0,0,0,2556,2021-01-15 19:02:10:809
9.819,0.132,0.103,0,0,0,2566,2021-01-15 19:02:10:819
9.819,0.132,0.103,0,0,0,2578,2021-01-15 19:02:10:831
9.819,0.132,0.103,0,0,0,2585,2021-01-15 19:02:10:838
9.819,0.132,0.103,0,0,0,2595,2021-01-15 19:02:10:848
9.809,0.134,0.127,0,0,0,2605,2021-01-15 19:02:10:858
9.809,0.134,0.127,0,0,0,2617,2021-01-15 19:02:10:870
9.809,0.134,0.127,0,0,0,2631,2021-01-15 19:02:10:884
9.809,0.134,0.127,0,0,0,2635,2021-01-15 19:02:10:888
9.809,0.134,0.127,0,0,0,2649,2021-01-15 19:02:10:902
9.809,0.134,0.127,0,0,0,2656,2021-01-15 19:02:10:909
9.809,0.134,0.127,0,0,0,2666,2021-01-15 19:02:10:919
9.824,0.134,0.12,0,0,0,2677,2021-01-15 19:02:10:930
9.824,0.134,0.12,0,0,0,2685,2021-01-15 19:02:10:938
9.824,0.134,0.12,0,0,0,2695,2021-01-15 19:02:10:948
9.824,0.134,0.12,0,0,0,2705,2021-01-15 19:02:10:958
9.824,0.134,0.12,0,0,0,2718,2021-01-15 19:02:10:971
9.797,0.132,0.132,0,0,0,2728,2021-01-15 19:02:10:981
9.797,0.132,0.132,0,0,0,2735,2021-01-15 19:02:10:988
9.797,0.132,0.132,0,0,0,2746,2021-01-15 19:02:10:999
9.797,0.132,0.132,0,0,0,2756,2021-01-15 19:02:11:009
9.797,0.132,0.132,0,0,0,2765,2021-01-15 19:02:11:018
9.797,0.132,0.132,0,0,0,2775,2021-01-15 19:02:11:028
9.802,0.127,0.132,0.001,0,0,2792,2021-01-15 19:02:11:045
9.802,0.127,0.132,0.001,0,0,2797,2021-01-15 19:02:11:050
9.802,0.127,0.132,0.001,0,0,2805,2021-01-15 19:02:11:058
9.802,0.127,0.132,0.001,0,0,2816,2021-01-15 19:02:11:069
9.802,0.127,0.132,0.001,0,0,2826,2021-01-15 19:02:11:079
9.802,0.127,0.132,0.001,0,0,2836,2021-01-15 19:02:11:089
9.814,0.127,0.132,0.001,0,0,2847,2021-01-15 19:02:11:100
9.814,0.127,0.132,0.001,0,0,2856,2021-01-15 19:02:11:109
9.814,0.127,0.132,0.001,0,0,2866,2021-01-15 19:02:11:119
9.814,0.127,0.132,0.001,0,0,2875,2021-01-15 19:02:11:128
9.814,0.127,0.132,0.001,0,0,2885,2021-01-15 19:02:11:138
9.814,0.127,0.132,0.001,0,0,2896,2021-01-15 19:02:11:149
9.797,0.134,0.134,0,0,0,2911,2021-01-15 19:02:11:164
9.797,0.134,0.134,0,0,0,2916,2021-01-15 19:02:11:169
9.797,0.134,0.134,0,0,0,2926,2021-01-15 19:02:11:179
9.797,0.134,0.134,0,0,0,2935,2021-01-15 19:02:11:188
9.797,0.134,0.134,0,0,0,2945,2021-01-15 19:02:11:198
9.797,0.134,0.134,0,0,0,2955,2021-01-15 19:02:11:208
9.797,0.134,0.134,0,0,0,2965,2021-01-15 19:02:11:218
9.819,0.122,0.122,0,0,0,2975,2021-01-15 19:02:11:228
9.819,0.122,0.122,0,0,0,2987,2021-01-15 19:02:11:240
9.819,0.122,0.122,0,0,0,2995,2021-01-15 19:02:11:248
9.819,0.122,0.122,0,0,0,3006,2021-01-15 19:02:11:259
9.819,0.122,0.122,0,0,0,3015,2021-01-15 19:02:11:268
9.819,0.122,0.122,0,0,0,3025,2021-01-15 19:02:11:278
9.819,0.122,0.122,0,0,0,3035,2021-01-15 19:02:11:288
9.819,0.122,0.122,0,0,0,3045,2021-01-15 19:02:11:298
9.819,0.122,0.122,0,0,0,3055,2021-01-15 19:02:11:308
9.819,0.122,0.122,0,0,0,3066,2021-01-15 19:02:11:319
9.819,0.122,0.122,0,0,0,3076,2021-01-15 19:02:11:329
9.819,0.122,0.122,0,0,0,3092,2021-01-15 19:02:11:345
9.819,0.122,0.122,0,0,0,3096,2021-01-15 19:02:11:349
9.819,0.122,0.122,0,0,0,3117,2021-01-15 19:02:11:370
9.819,0.122,0.122,0,0,0,3117,2021-01-15 19:02:11:370
9.805,0.122,0.127,0,0,0,3126,2021-01-15 19:02:11:379
9.805,0.122,0.127,0,0,0,3136,2021-01-15 19:02:11:389
9.805,0.122,0.127,0,0,0,3146,2021-01-15 19:02:11:399
9.805,0.122,0.127,0,0,0,3155,2021-01-15 19:02:11:408
9.805,0.122,0.127,0,0,0,3166,2021-01-15 19:02:11:419
9.805,0.122,0.127,0,0,0,3176,2021-01-15 19:02:11:429
9.814,0.136,0.144,0,0,0,3186,2021-01-15 19:02:11:439
9.814,0.136,0.144,0,0,0,3195,2021-01-15 19:02:11:448
9.814,0.136,0.144,0,0,0,3205,2021-01-15 19:02:11:458
9.814,0.136,0.144,0,0,0,3215,2021-01-15 19:02:11:468
9.814,0.136,0.144,0,0,0,3226,2021-01-15 19:02:11:479
9.814,0.136,0.144,0,0,0,3236,2021-01-15 19:02:11:489
9.802,0.127,0.141,0,0,0,3246,2021-01-15 19:02:11:499
9.802,0.127,0.141,0,0,0,3256,2021-01-15 19:02:11:509
9.802,0.127,0.141,0,0,0,3266,2021-01-15 19:02:11:519
9.802,0.127,0.141,0,0,0,3275,2021-01-15 19:02:11:528
9.802,0.127,0.141,0,0,0,3285,2021-01-15 19:02:11:538
9.802,0.127,0.141,0,0,0,3296,2021-01-15 19:02:11:549
9.817,0.129,0.127,0,0,0,3305,2021-01-15 19:02:11:558
9.817,0.129,0.127,0,0,0,3318,2021-01-15 19:02:11:571
9.817,0.129,0.127,0,0,0,3325,2021-01-15 19:02:11:578
9.817,0.129,0.127,0,0,0,3335,2021-01-15 19:02:11:588
9.817,0.129,0.127,0,0,0,3345,2021-01-15 19:02:11:598
9.817,0.129,0.127,0,0,0,3356,2021-01-15 19:02:11:609
9.802,0.127,0.132,0,0,0,3365,2021-01-15 19:02:11:618
9.802,0.127,0.132,0,0,0,3375,2021-01-15 19:02:11:628
9.802,0.127,0.132,0,0,0,3386,2021-01-15 19:02:11:639
9.802,0.127,0.132,0,0,0,3395,2021-01-15 19:02:11:648
9.802,0.127,0.132,0,0,0,3405,2021-01-15 19:02:11:658
9.802,0.127,0.132,0,0,0,3416,2021-01-15 19:02:11:669
9.809,0.127,0.139,0,0,0,3426,2021-01-15 19:02:11:679
9.809,0.127,0.139,0,0,0,3438,2021-01-15 19:02:11:691
9.809,0.127,0.139,0,0,0,3446,2021-01-15 19:02:11:699
9.809,0.127,0.139,0,0,0,3455,2021-01-15 19:02:11:708
9.809,0.127,0.139,0,0,0,3465,2021-01-15 19:02:11:718
9.809,0.127,0.139,0,0,0,3476,2021-01-15 19:02:11:729
9.8,0.136,0.141,0,0,0,3486,2021-01-15 19:02:11:739
9.8,0.136,0.141,0,0,0,3496,2021-01-15 19:02:11:749
9.8,0.136,0.141,0,0,0,3506,2021-01-15 19:02:11:759
9.8,0.136,0.141,0,0,0,3515,2021-01-15 19:02:11:768
9.8,0.136,0.141,0,0,0,3526,2021-01-15 19:02:11:779
9.8,0.136,0.141,0,0,0,3535,2021-01-15 19:02:11:788
9.802,0.12,0.129,0,0,0,3545,2021-01-15 19:02:11:798
9.802,0.12,0.129,0,0,0,3556,2021-01-15 19:02:11:809
9.802,0.12,0.129,0,0,0,3566,2021-01-15 19:02:11:819
9.802,0.12,0.129,0,0,0,3576,2021-01-15 19:02:11:829
9.802,0.12,0.129,0,0,0,3585,2021-01-15 19:02:11:838
9.802,0.12,0.129,0,0,0,3595,2021-01-15 19:02:11:848
9.812,0.129,0.132,0,0,0,3606,2021-01-15 19:02:11:859
9.812,0.129,0.132,0,0,0,3615,2021-01-15 19:02:11:868
9.812,0.129,0.132,0,0,0,3625,2021-01-15 19:02:11:878
9.812,0.129,0.132,0,0,0,3636,2021-01-15 19:02:11:889
9.812,0.129,0.132,0,0,0,3646,2021-01-15 19:02:11:899
9.812,0.129,0.132,0,0,0,3655,2021-01-15 19:02:11:908
9.793,0.127,0.127,0,0,0,3666,2021-01-15 19:02:11:919
9.793,0.127,0.127,0,0,0,3676,2021-01-15 19:02:11:929
9.793,0.127,0.127,0,0,0,3687,2021-01-15 19:02:11:940
9.793,0.127,0.127,0,0,0,3696,2021-01-15 19:02:11:949
9.793,0.127,0.127,0,0,0,3706,2021-01-15 19:02:11:959
9.793,0.127,0.127,0,0,0,3716,2021-01-15 19:02:11:969
9.8,0.122,0.103,0,0,0,3726,2021-01-15 19:02:11:979
9.8,0.122,0.103,0,0,0,3736,2021-01-15 19:02:11:989
9.8,0.122,0.103,0,0,0,3746,2021-01-15 19:02:11:999
9.8,0.122,0.103,0,0,0,3757,2021-01-15 19:02:12:010
9.8,0.122,0.103,0,0,0,3766,2021-01-15 19:02:12:019
9.8,0.122,0.103,0,0,0,3776,2021-01-15 19:02:12:029
9.807,0.12,0.122,0,0,0,3786,2021-01-15 19:02:12:039
9.807,0.12,0.122,0,0,0,3796,2021-01-15 19:02:12:049
9.807,0.12,0.122,0,0,0,3810,2021-01-15 19:02:12:063
9.807,0.12,0.122,0,0,0,3816,2021-01-15 19:02:12:069
9.807,0.12,0.122,0,0,0,3825,2021-01-15 19:02:12:078
9.807,0.12,0.122,0,0,0,3836,2021-01-15 19:02:12:089
9.807,0.139,0.101,0,0,0,3845,2021-01-15 19:02:12:098
9.807,0.139,0.101,0,0,0,3856,2021-01-15 19:02:12:109
9.807,0.139,0.101,0,0,0,3866,2021-01-15 19:02:12:119
9.807,0.139,0.101,0,0,0,3875,2021-01-15 19:02:12:128
9.807,0.139,0.101,0,0,0,3886,2021-01-15 19:02:12:139
9.807,0.139,0.101,0,0,0,3896,2021-01-15 19:02:12:149
9.807,0.139,0.113,0,0,0,3907,2021-01-15 19:02:12:160
9.807,0.139,0.113,0,0,0,3916,2021-01-15 19:02:12:169
9.807,0.139,0.113,0,0,0,3927,2021-01-15 19:02:12:180
9.807,0.139,0.113,0,0,0,3935,2021-01-15 19:02:12:188
9.807,0.139,0.113,0,0,0,3946,2021-01-15 19:02:12:199
9.807,0.139,0.113,0,0,0,3960,2021-01-15 19:02:12:213
9.819,0.129,0.105,0,0,0,3967,2021-01-15 19:02:12:220
9.819,0.129,0.105,0,0,0,3975,2021-01-15 19:02:12:228
9.819,0.129,0.105,0,0,0,3986,2021-01-15 19:02:12:239
9.819,0.129,0.105,0,0,0,3996,2021-01-15 19:02:12:249
9.819,0.129,0.105,0,0,0,4006,2021-01-15 19:02:12:259
9.819,0.129,0.105,0,0,0,4016,2021-01-15 19:02:12:269
9.802,0.136,0.093,0,0,0,4026,2021-01-15 19:02:12:279
9.802,0.136,0.093,0,0,0,4035,2021-01-15 19:02:12:288
9.802,0.136,0.093,0,0,0,4048,2021-01-15 19:02:12:301
9.802,0.136,0.093,0,0,0,4057,2021-01-15 19:02:12:310
9.802,0.136,0.093,0,0,0,4067,2021-01-15 19:02:12:320
9.802,0.136,0.093,0,0,0,4076,2021-01-15 19:02:12:329
9.817,0.129,0.105,0,0,0,4087,2021-01-15 19:02:12:340
9.817,0.129,0.105,0,0,0,4095,2021-01-15 19:02:12:348
9.817,0.129,0.105,0,0,0,4106,2021-01-15 19:02:12:359
9.817,0.129,0.105,0,0,0,4116,2021-01-15 19:02:12:369
9.817,0.129,0.105,0,0,0,4126,2021-01-15 19:02:12:379
9.817,0.129,0.105,0,0,0,4140,2021-01-15 19:02:12:393
9.805,0.127,0.093,0,0,0,4146,2021-01-15 19:02:12:399
9.805,0.127,0.093,0,0,0,4156,2021-01-15 19:02:12:409
9.805,0.127,0.093,0,0,0,4167,2021-01-15 19:02:12:420
9.805,0.127,0.093,0,0,0,4176,2021-01-15 19:02:12:429
9.805,0.127,0.093,0,0,0,4187,2021-01-15 19:02:12:440
9.805,0.127,0.093,0,0,0,4196,2021-01-15 19:02:12:449
9.824,0.139,0.096,0,0,0,4207,2021-01-15 19:02:12:460
9.824,0.139,0.096,0,0,0,4216,2021-01-15 19:02:12:469
9.824,0.139,0.096,0,0,0,4226,2021-01-15 19:02:12:479
9.824,0.139,0.096,0,0,0,4236,2021-01-15 19:02:12:489
9.824,0.139,0.096,0,0,0,4245,2021-01-15 19:02:12:498
9.824,0.139,0.096,0,0,0,4256,2021-01-15 19:02:12:509
9.824,0.139,0.089,0,0,0,4265,2021-01-15 19:02:12:518
9.805,0.139,0.089,0,0,0,4275,2021-01-15 19:02:12:528
9.805,0.139,0.089,0,0,0,4286,2021-01-15 19:02:12:539
9.805,0.139,0.089,0,0,0,4295,2021-01-15 19:02:12:548
9.805,0.139,0.089,0,0,0,4308,2021-01-15 19:02:12:561
9.805,0.139,0.089,0,0,0,4316,2021-01-15 19:02:12:569
9.807,0.144,0.108,0,0,0,4328,2021-01-15 19:02:12:581
9.807,0.144,0.108,0,0,0,4340,2021-01-15 19:02:12:593
9.807,0.144,0.108,0,0,0,4346,2021-01-15 19:02:12:599
9.807,0.144,0.108,0,0,0,4356,2021-01-15 19:02:12:609
9.807,0.144,0.108,0,0,0,4366,2021-01-15 19:02:12:619
9.807,0.144,0.108,0,0,0,4376,2021-01-15 19:02:12:629
9.802,0.139,0.105,0,0,0,4386,2021-01-15 19:02:12:639
9.802,0.139,0.105,0,0,0,4396,2021-01-15 19:02:12:649
9.802,0.139,0.105,0,0,0,4409,2021-01-15 19:02:12:662
9.802,0.139,0.105,0,0,0,4416,2021-01-15 19:02:12:669
9.802,0.139,0.105,0,0,0,4426,2021-01-15 19:02:12:679
9.802,0.139,0.105,0,0,0,4435,2021-01-15 19:02:12:688
9.809,0.146,0.091,0,0,0,4445,2021-01-15 19:02:12:698
9.809,0.146,0.091,0,0,0,4455,2021-01-15 19:02:12:708
9.809,0.146,0.091,0,0,0,4465,2021-01-15 19:02:12:718
9.809,0.146,0.091,0,0,0,4477,2021-01-15 19:02:12:730
9.809,0.146,0.091,0,0,0,4486,2021-01-15 19:02:12:739
9.809,0.146,0.091,0,0,0,4495,2021-01-15 19:02:12:748
9.807,0.134,0.098,0,0,0,4507,2021-01-15 19:02:12:760
9.807,0.134,0.098,0,0,0,4516,2021-01-15 19:02:12:769
9.807,0.134,0.098,0,0,0,4526,2021-01-15 19:02:12:779
9.807,0.134,0.098,0,0,0,4536,2021-01-15 19:02:12:789
9.807,0.134,0.098,0,0,0,4546,2021-01-15 19:02:12:799
9.807,0.134,0.098,0,0,0,4555,2021-01-15 19:02:12:808
9.79,0.136,0.105,0,0,0,4565,2021-01-15 19:02:12:818
9.79,0.136,0.105,0,0,0,4576,2021-01-15 19:02:12:829
9.79,0.136,0.105,0,0,0,4585,2021-01-15 19:02:12:838
9.79,0.136,0.105,0,0,0,4596,2021-01-15 19:02:12:849
9.79,0.136,0.105,0,0,0,4606,2021-01-15 19:02:12:859
9.79,0.136,0.105,0,0,0,4615,2021-01-15 19:02:12:868
9.819,0.136,0.096,0,0,0,4625,2021-01-15 19:02:12:878
9.819,0.136,0.096,0,0,0,4637,2021-01-15 19:02:12:890
9.819,0.136,0.096,0,0,0,4646,2021-01-15 19:02:12:899
9.819,0.136,0.096,0,0,0,4657,2021-01-15 19:02:12:910
9.819,0.136,0.096,0,0,0,4669,2021-01-15 19:02:12:922
9.819,0.136,0.096,0,0,0,4677,2021-01-15 19:02:12:930
9.817,0.139,0.105,0,0,0,4687,2021-01-15 19:02:12:940
9.817,0.139,0.105,0,0,0,4696,2021-01-15 19:02:12:949
9.817,0.139,0.105,0,0,0,4706,2021-01-15 19:02:12:959
9.817,0.139,0.105,0,0,0,4716,2021-01-15 19:02:12:969
9.817,0.139,0.105,0,0,0,4725,2021-01-15 19:02:12:978
9.817,0.139,0.105,0,0,0,4736,2021-01-15 19:02:12:989
9.8,0.141,0.101,0,0,0,4746,2021-01-15 19:02:12:999
9.8,0.141,0.101,0,0,0,4756,2021-01-15 19:02:13:009
9.8,0.141,0.101,0,0,0,4766,2021-01-15 19:02:13:019
9.8,0.141,0.101,0,0,0,4776,2021-01-15 19:02:13:029
9.8,0.141,0.101,0,0,0,4785,2021-01-15 19:02:13:038
9.8,0.141,0.101,0,0,0,4796,2021-01-15 19:02:13:049
9.812,0.132,0.096,0,0,0,4806,2021-01-15 19:02:13:059
9.812,0.132,0.096,0,0,0,4815,2021-01-15 19:02:13:068
9.812,0.132,0.096,0,0,0,4825,2021-01-15 19:02:13:078
9.812,0.132,0.096,0,0,0,4835,2021-01-15 19:02:13:088
9.812,0.132,0.096,0,0,0,4846,2021-01-15 19:02:13:099
9.812,0.132,0.096,0,0,0,4856,2021-01-15 19:02:13:109
9.8,0.127,0.113,0,0,0,4866,2021-01-15 19:02:13:119
9.8,0.127,0.113,0,0,0,4875,2021-01-15 19:02:13:128
9.8,0.127,0.113,0,0,0,4886,2021-01-15 19:02:13:139
9.8,0.127,0.113,0,0,0,4896,2021-01-15 19:02:13:149
9.8,0.127,0.113,0,0,0,4906,2021-01-15 19:02:13:159
9.8,0.127,0.113,0,0,0,4916,2021-01-15 19:02:13:169
9.812,0.134,0.079,0,0,0,4926,2021-01-15 19:02:13:179
9.812,0.134,0.079,0,0,0,4936,2021-01-15 19:02:13:189
9.812,0.134,0.079,0,0,0,4946,2021-01-15 19:02:13:199
9.812,0.134,0.079,0,0,0,4956,2021-01-15 19:02:13:209
9.812,0.134,0.079,0,0,0,4966,2021-01-15 19:02:13:219
9.812,0.134,0.079,0,0,0,4976,2021-01-15 19:02:13:229
9.812,0.134,0.079,0,0,0,4986,2021-01-15 19:02:13:239
9.812,0.129,0.084,0,0,0,4996,2021-01-15 19:02:13:249
9.812,0.129,0.084,0,0,0,5006,2021-01-15 19:02:13:259
9.812,0.129,0.084,0,0,0,5018,2021-01-15 19:02:13:271
9.812,0.129,0.084,0,0,0,5030,2021-01-15 19:02:13:283
9.812,0.129,0.084,0,0,0,5036,2021-01-15 19:02:13:289
9.828,0.136,0.089,0,0,0,5046,2021-01-15 19:02:13:299
9.828,0.136,0.089,0,0,0,5055,2021-01-15 19:02:13:308
9.828,0.136,0.089,0,0,0,5065,2021-01-15 19:02:13:318
9.828,0.136,0.089,0,0,0,5075,2021-01-15 19:02:13:328
9.828,0.136,0.089,0,0,0,5086,2021-01-15 19:02:13:339
9.828,0.136,0.089,0,0,0,5096,2021-01-15 19:02:13:349
9.812,0.134,0.089,0,0,0,5106,2021-01-15 19:02:13:359
9.812,0.134,0.089,0,0,0,5116,2021-01-15 19:02:13:369
9.812,0.134,0.089,0,0,0,5125,2021-01-15 19:02:13:378
9.812,0.134,0.089,0,0,0,5141,2021-01-15 19:02:13:394
9.812,0.134,0.089,0,0,0,5158,2021-01-15 19:02:13:411
9.812,0.134,0.089,0,0,0,5158,2021-01-15 19:02:13:411
9.795,0.136,0.096,0,0,0,5165,2021-01-15 19:02:13:418
9.795,0.136,0.096,0,0,0,5175,2021-01-15 19:02:13:428
9.795,0.136,0.096,0,0,0,5185,2021-01-15 19:02:13:438
9.795,0.136,0.096,0,0,0,5196,2021-01-15 19:02:13:449
9.795,0.136,0.096,0,0,0,5207,2021-01-15 19:02:13:460
9.795,0.136,0.096,0,0,0,5216,2021-01-15 19:02:13:469
9.807,0.136,0.072,0,0,0,5226,2021-01-15 19:02:13:479
9.807,0.136,0.072,0,0,0,5235,2021-01-15 19:02:13:488
9.807,0.136,0.072,0,0,0,5246,2021-01-15 19:02:13:499
9.807,0.136,0.072,0,0,0,5255,2021-01-15 19:02:13:508
9.807,0.136,0.072,0,0,0,5266,2021-01-15 19:02:13:519
9.807,0.136,0.072,0,0,0,5275,2021-01-15 19:02:13:528
9.812,0.127,0.096,0,0,0,5286,2021-01-15 19:02:13:539
9.812,0.127,0.096,0,0,0,5295,2021-01-15 19:02:13:548
9.812,0.127,0.096,0,0,0,5306,2021-01-15 19:02:13:559
9.812,0.127,0.096,0,0,0,5315,2021-01-15 19:02:13:568
9.812,0.127,0.096,0,0,0,5327,2021-01-15 19:02:13:580
9.812,0.127,0.096,0,0,0,5336,2021-01-15 19:02:13:589
9.805,0.132,0.115,0,0,0,5345,2021-01-15 19:02:13:598
9.805,0.132,0.115,0,0,0,5356,2021-01-15 19:02:13:609
9.805,0.132,0.115,0,0,0,5365,2021-01-15 19:02:13:618
9.805,0.132,0.115,0,0,0,5375,2021-01-15 19:02:13:628
9.805,0.132,0.115,0,0,0,5386,2021-01-15 19:02:13:639
9.805,0.132,0.115,0,0,0,5395,2021-01-15 19:02:13:648
9.809,0.146,0.096,0,0,0,5406,2021-01-15 19:02:13:659
9.809,0.146,0.096,0,0,0,5416,2021-01-15 19:02:13:669
9.809,0.146,0.096,0,0,0,5425,2021-01-15 19:02:13:678
9.809,0.146,0.096,0,0,0,5436,2021-01-15 19:02:13:689
9.809,0.146,0.096,0,0,0,5445,2021-01-15 19:02:13:698
9.809,0.146,0.096,0,0,0,5456,2021-01-15 19:02:13:709
9.812,0.156,0.11,0,0,0,5466,2021-01-15 19:02:13:719
9.812,0.156,0.11,0,0,0,5476,2021-01-15 19:02:13:729
9.812,0.156,0.11,0,0,0,5485,2021-01-15 19:02:13:738
9.812,0.156,0.11,0,0,0,5495,2021-01-15 19:02:13:748
9.812,0.156,0.11,0,0,0,5506,2021-01-15 19:02:13:759
9.812,0.156,0.11,0,0,0,5516,2021-01-15 19:02:13:769
9.805,0.132,0.113,0,0,0,5526,2021-01-15 19:02:13:779
9.805,0.132,0.113,0,0,0,5536,2021-01-15 19:02:13:789
9.805,0.132,0.113,0,0,0,5545,2021-01-15 19:02:13:798
9.805,0.132,0.113,0,0,0,5555,2021-01-15 19:02:13:808
9.805,0.132,0.113,0,0,0,5566,2021-01-15 19:02:13:819
9.805,0.132,0.113,0,0,0,5576,2021-01-15 19:02:13:829
9.795,0.122,0.132,0,0,0,5585,2021-01-15 19:02:13:838
9.795,0.122,0.132,0,0,0,5596,2021-01-15 19:02:13:849
9.795,0.122,0.132,0,0,0,5606,2021-01-15 19:02:13:859
9.795,0.122,0.132,0,0,0,5615,2021-01-15 19:02:13:868
9.795,0.122,0.132,0,0,0,5625,2021-01-15 19:02:13:878
9.795,0.122,0.132,0,0,0,5635,2021-01-15 19:02:13:888
9.797,0.132,0.134,0,0,0,5646,2021-01-15 19:02:13:899
9.797,0.132,0.134,0,0,0,5656,2021-01-15 19:02:13:909
9.797,0.132,0.134,0,0,0,5666,2021-01-15 19:02:13:919
9.797,0.132,0.134,0,0,0,5676,2021-01-15 19:02:13:929
9.797,0.132,0.134,0,0,0,5686,2021-01-15 19:02:13:939
9.797,0.132,0.134,0,0,0,5696,2021-01-15 19:02:13:949
9.809,0.115,0.139,0,0,0,5706,2021-01-15 19:02:13:959
9.809,0.115,0.139,0,0,0,5716,2021-01-15 19:02:13:969
9.809,0.115,0.139,0,0,0,5726,2021-01-15 19:02:13:979
9.809,0.115,0.139,0,0,0,5736,2021-01-15 19:02:13:989
9.809,0.115,0.139,0,0,0,5746,2021-01-15 19:02:13:999
9.809,0.115,0.139,0,0,0,5756,2021-01-15 19:02:14:009
9.805,0.129,0.115,0,0,0,5766,2021-01-15 19:02:14:019
9.805,0.129,0.115,0,0,0,5779,2021-01-15 19:02:14:032
9.805,0.129,0.115,0,0,0,5786,2021-01-15 19:02:14:039
9.805,0.129,0.115,0,0,0,5801,2021-01-15 19:02:14:054
9.805,0.129,0.115,0,0,0,5806,2021-01-15 19:02:14:059
9.805,0.129,0.115,0,0,0,5816,2021-01-15 19:02:14:069
9.809,0.129,0.129,0,0,0,5826,2021-01-15 19:02:14:079
9.809,0.129,0.129,0,0,0,5835,2021-01-15 19:02:14:088
9.809,0.129,0.129,0,0,0,5846,2021-01-15 19:02:14:099
9.809,0.129,0.129,0,0,0,5855,2021-01-15 19:02:14:108
9.809,0.129,0.129,0,0,0,5866,2021-01-15 19:02:14:119
9.809,0.129,0.129,0,0,0,5875,2021-01-15 19:02:14:128
9.814,0.129,0.127,0,0,0,5885,2021-01-15 19:02:14:138
9.814,0.129,0.127,0,0,0,5895,2021-01-15 19:02:14:148
9.814,0.129,0.127,0,0,0,5906,2021-01-15 19:02:14:159
9.814,0.129,0.127,0,0,0,5916,2021-01-15 19:02:14:169
9.814,0.129,0.127,0,0,0,5926,2021-01-15 19:02:14:179
9.814,0.129,0.127,0,0,0,5935,2021-01-15 19:02:14:188
9.814,0.141,0.134,0,0,0,5946,2021-01-15 19:02:14:199
9.814,0.141,0.134,0,0,0,5956,2021-01-15 19:02:14:209
9.814,0.141,0.134,0,0,0,5966,2021-01-15 19:02:14:219
9.814,0.141,0.134,0,0,0,5976,2021-01-15 19:02:14:229
9.814,0.141,0.134,0,0,0,5986,2021-01-15 19:02:14:239
9.814,0.141,0.134,0,0,0,5996,2021-01-15 19:02:14:249
9.819,0.127,0.122,0,0,0,6005,2021-01-15 19:02:14:258
9.819,0.127,0.122,0,0,0,6016,2021-01-15 19:02:14:269
9.819,0.127,0.122,0,0,0,6027,2021-01-15 19:02:14:280
9.819,0.127,0.122,0,0,0,6036,2021-01-15 19:02:14:289
9.819,0.127,0.122,0,0,0,6046,2021-01-15 19:02:14:299
9.819,0.127,0.122,0,0,0,6056,2021-01-15 19:02:14:309
9.795,0.127,0.134,0,0,0,6065,2021-01-15 19:02:14:318
9.795,0.127,0.134,0,0,0,6076,2021-01-15 19:02:14:329
9.795,0.127,0.134,0,0,0,6087,2021-01-15 19:02:14:340
9.795,0.127,0.134,0,0,0,6095,2021-01-15 19:02:14:348
9.795,0.127,0.134,0,0,0,6106,2021-01-15 19:02:14:359
9.795,0.127,0.134,0,0,0,6115,2021-01-15 19:02:14:368
9.793,0.129,0.146,0,0,0,6125,2021-01-15 19:02:14:378
9.793,0.129,0.146,0,0,0,6136,2021-01-15 19:02:14:389
9.793,0.129,0.146,0,0,0,6146,2021-01-15 19:02:14:399
9.793,0.129,0.146,0,0,0,6156,2021-01-15 19:02:14:409
9.793,0.129,0.146,0,0,0,6166,2021-01-15 19:02:14:419
9.793,0.129,0.146,0,0,0,6177,2021-01-15 19:02:14:430
9.809,0.127,0.139,0,0,0,6185,2021-01-15 19:02:14:438
9.809,0.127,0.139,0,0,0,6196,2021-01-15 19:02:14:449
9.809,0.127,0.139,0,0,0,6206,2021-01-15 19:02:14:459
9.809,0.127,0.139,0,0,0,6216,2021-01-15 19:02:14:469
9.809,0.127,0.139,0,0,0,6226,2021-01-15 19:02:14:479
9.809,0.127,0.139,0,0,0,6236,2021-01-15 19:02:14:489
9.797,0.129,0.146,0,0,0,6246,2021-01-15 19:02:14:499
9.797,0.129,0.146,0,0,0,6258,2021-01-15 19:02:14:511
9.797,0.129,0.146,0,0,0,6265,2021-01-15 19:02:14:518
9.797,0.129,0.146,0,0,0,6275,2021-01-15 19:02:14:528
9.797,0.129,0.146,0,0,0,6285,2021-01-15 19:02:14:538
9.797,0.129,0.146,0,0,0,6295,2021-01-15 19:02:14:548
9.812,0.144,0.134,0,0,0,6307,2021-01-15 19:02:14:560
9.812,0.144,0.134,0,0,0,6316,2021-01-15 19:02:14:569
9.812,0.144,0.134,0,0,0,6326,2021-01-15 19:02:14:579
9.812,0.144,0.134,0,0,0,6336,2021-01-15 19:02:14:589
9.812,0.144,0.134,0,0,0,6346,2021-01-15 19:02:14:599
9.812,0.144,0.134,0,0,0,6359,2021-01-15 19:02:14:612
9.824,0.132,0.153,0,0,0,6366,2021-01-15 19:02:14:619
9.824,0.132,0.153,0,0,0,6376,2021-01-15 19:02:14:629
9.824,0.132,0.153,0,0,0,6386,2021-01-15 19:02:14:639
9.824,0.132,0.153,0,0,0,6395,2021-01-15 19:02:14:648
9.824,0.132,0.153,0,0,0,6405,2021-01-15 19:02:14:658
9.824,0.132,0.153,0,0,0,6415,2021-01-15 19:02:14:668
9.814,0.144,0.148,0,0,0,6425,2021-01-15 19:02:14:678
9.814,0.144,0.148,0,0,0,6436,2021-01-15 19:02:14:689
9.814,0.144,0.148,0,0,0,6446,2021-01-15 19:02:14:699
9.814,0.144,0.148,0,0,0,6456,2021-01-15 19:02:14:709
9.814,0.144,0.148,0,0,0,6466,2021-01-15 19:02:14:719
9.814,0.144,0.148,0,0,0,6476,2021-01-15 19:02:14:729
9.797,0.129,0.132,0,0,0,6486,2021-01-15 19:02:14:739
9.797,0.129,0.132,0,0,0,6497,2021-01-15 19:02:14:750
9.797,0.129,0.132,0,0,0,6506,2021-01-15 19:02:14:759
9.797,0.129,0.132,0,0,0,6517,2021-01-15 19:02:14:770
9.797,0.129,0.132,0,0,0,6525,2021-01-15 19:02:14:778
9.797,0.129,0.132,0,0,0,6535,2021-01-15 19:02:14:788
9.817,0.148,0.117,0,0,0,6547,2021-01-15 19:02:14:800
9.817,0.148,0.117,0,0,0,6556,2021-01-15 19:02:14:809
9.817,0.148,0.117,0,0,0,6566,2021-01-15 19:02:14:819
9.817,0.148,0.117,0,0,0,6576,2021-01-15 19:02:14:829
9.817,0.148,0.117,0,0,0,6585,2021-01-15 19:02:14:838
9.817,0.148,0.117,0,0,0,6595,2021-01-15 19:02:14:848
9.802,0.132,0.11,0,0,0,6605,2021-01-15 19:02:14:858
9.802,0.132,0.11,0,0,0,6617,2021-01-15 19:02:14:870
9.802,0.132,0.11,0,0,0,6626,2021-01-15 19:02:14:879
9.802,0.132,0.11,0,0,0,6635,2021-01-15 19:02:14:888
9.802,0.132,0.11,0,0,0,6646,2021-01-15 19:02:14:899
9.802,0.132,0.11,0,0,0,6655,2021-01-15 19:02:14:908
9.814,0.139,0.12,0,0,0,6666,2021-01-15 19:02:14:919
9.814,0.139,0.12,0,0,0,6675,2021-01-15 19:02:14:928
9.814,0.139,0.12,0,0,0,6686,2021-01-15 19:02:14:939
9.814,0.139,0.12,0,0,0,6696,2021-01-15 19:02:14:949
9.814,0.139,0.12,0,0,0,6705,2021-01-15 19:02:14:958
9.814,0.139,0.12,0,0,0,6716,2021-01-15 19:02:14:969
9.824,0.132,0.108,0,0,0,6725,2021-01-15 19:02:14:978
9.824,0.132,0.108,0,0,0,6736,2021-01-15 19:02:14:989
9.824,0.132,0.108,0,0,0,6746,2021-01-15 19:02:14:999
9.824,0.132,0.108,0,0,0,6755,2021-01-15 19:02:15:008
9.824,0.132,0.108,0,0,0,6766,2021-01-15 19:02:15:019
9.824,0.132,0.108,0,0,0,6776,2021-01-15 19:02:15:029
9.8,0.134,0.113,0,0,0,6785,2021-01-15 19:02:15:038
9.8,0.134,0.113,0,0,0,6795,2021-01-15 19:02:15:048
9.8,0.134,0.113,0,-0.001,0,6806,2021-01-15 19:02:15:059
9.8,0.134,0.113,0,-0.001,0,6816,2021-01-15 19:02:15:069
9.8,0.134,0.113,0,-0.001,0,6826,2021-01-15 19:02:15:079
9.8,0.134,0.113,0,-0.001,0,6835,2021-01-15 19:02:15:088
9.817,0.139,0.129,0,-0.001,0,6847,2021-01-15 19:02:15:100
9.817,0.139,0.129,0,-0.001,0,6855,2021-01-15 19:02:15:108
9.817,0.139,0.129,0,-0.001,0,6866,2021-01-15 19:02:15:119
9.817,0.139,0.129,0,-0.001,0,6875,2021-01-15 19:02:15:128
9.817,0.139,0.129,0,-0.001,0,6885,2021-01-15 19:02:15:138
9.817,0.139,0.129,0,-0.001,0,6896,2021-01-15 19:02:15:149
9.814,0.134,0.105,0,-0.001,0,6905,2021-01-15 19:02:15:158
9.814,0.134,0.105,0,-0.001,0,6916,2021-01-15 19:02:15:169
9.814,0.134,0.105,0,0,0,6926,2021-01-15 19:02:15:179
9.814,0.134,0.105,0,0,0,6936,2021-01-15 19:02:15:189
9.814,0.134,0.105,0,0,0,6945,2021-01-15 19:02:15:198
9.814,0.134,0.105,0,0,0,6956,2021-01-15 19:02:15:209
9.812,0.158,0.101,0,0,0,6965,2021-01-15 19:02:15:218
9.812,0.158,0.101,0,0,0,6975,2021-01-15 19:02:15:228
9.812,0.158,0.101,0,0,0,6986,2021-01-15 19:02:15:239
9.812,0.158,0.101,0,0,0,6996,2021-01-15 19:02:15:249
9.812,0.158,0.101,0,0,0,7005,2021-01-15 19:02:15:258
9.812,0.158,0.101,0,0,0,7016,2021-01-15 19:02:15:269
9.797,0.134,0.101,0,0,0,7025,2021-01-15 19:02:15:278
9.797,0.134,0.101,0,0,0,7035,2021-01-15 19:02:15:288
9.797,0.134,0.101,0,0,0,7045,2021-01-15 19:02:15:298
9.797,0.134,0.101,0,0,0,7055,2021-01-15 19:02:15:308
9.797,0.134,0.101,0,0,0,7066,2021-01-15 19:02:15:319
9.797,0.134,0.101,0,0,0,7076,2021-01-15 19:02:15:329
9.802,0.122,0.122,0,0,0,7086,2021-01-15 19:02:15:339
9.802,0.122,0.122,0,0,0,7097,2021-01-15 19:02:15:350
9.802,0.122,0.122,0,0,0,7106,2021-01-15 19:02:15:359
9.802,0.122,0.122,0,0,0,7116,2021-01-15 19:02:15:369
9.802,0.122,0.122,0,0,0,7125,2021-01-15 19:02:15:378
9.802,0.122,0.122,0,0,0,7135,2021-01-15 19:02:15:388
9.807,0.132,0.091,0,0,0,7146,2021-01-15 19:02:15:399
9.807,0.132,0.091,0,0,0,7156,2021-01-15 19:02:15:409
9.807,0.132,0.091,0,0,0,7165,2021-01-15 19:02:15:418
9.807,0.132,0.091,0,0,0,7176,2021-01-15 19:02:15:429
9.807,0.132,0.091,0,0,0,7185,2021-01-15 19:02:15:438
9.807,0.132,0.091,0,0,0,7196,2021-01-15 19:02:15:449
9.817,0.129,0.091,0,0,0,7206,2021-01-15 19:02:15:459
9.817,0.129,0.091,0,0,0,7215,2021-01-15 19:02:15:468
9.817,0.129,0.091,0,0,0,7226,2021-01-15 19:02:15:479
9.817,0.129,0.091,0,0,0,7235,2021-01-15 19:02:15:488
9.817,0.129,0.091,0,0,0,7246,2021-01-15 19:02:15:499
9.817,0.129,0.091,0,0,0,7255,2021-01-15 19:02:15:508
9.805,0.139,0.11,0,0,0,7266,2021-01-15 19:02:15:519
9.805,0.139,0.11,0,0,0,7276,2021-01-15 19:02:15:529
9.805,0.139,0.11,0,0,0,7286,2021-01-15 19:02:15:539
9.805,0.139,0.11,0,0,0,7297,2021-01-15 19:02:15:550
9.805,0.139,0.11,0,0,0,7306,2021-01-15 19:02:15:559
9.805,0.139,0.11,0,0,0,7315,2021-01-15 19:02:15:568
9.807,0.136,0.096,0,0,0,7325,2021-01-15 19:02:15:578
9.807,0.136,0.096,0,0,0,7336,2021-01-15 19:02:15:589
9.807,0.136,0.096,0,0,0,7346,2021-01-15 19:02:15:599
9.807,0.136,0.096,0,0,0,7356,2021-01-15 19:02:15:609
9.807,0.136,0.096,0,0,0,7366,2021-01-15 19:02:15:619
9.807,0.136,0.096,0,0,0,7375,2021-01-15 19:02:15:628
9.807,0.141,0.084,0,0,0,7386,2021-01-15 19:02:15:639
9.807,0.141,0.084,0,0,0,7396,2021-01-15 19:02:15:649
9.807,0.141,0.084,0,0,0,7406,2021-01-15 19:02:15:659
9.807,0.141,0.084,0,0,0,7416,2021-01-15 19:02:15:669
9.807,0.141,0.084,0,0,0,7426,2021-01-15 19:02:15:679
9.807,0.141,0.084,0,0,0,7440,2021-01-15 19:02:15:693
9.797,0.12,0.101,0,0,0,7446,2021-01-15 19:02:15:699
9.797,0.12,0.101,0,0,0,7456,2021-01-15 19:02:15:709
9.797,0.12,0.101,0,0,0,7465,2021-01-15 19:02:15:718
9.797,0.12,0.101,0,0,0,7475,2021-01-15 19:02:15:728
9.797,0.12,0.101,0,0,0,7486,2021-01-15 19:02:15:739
9.797,0.12,0.101,0,0,0,7495,2021-01-15 19:02:15:748
9.793,0.125,0.11,0,0,0,7505,2021-01-15 19:02:15:758
9.793,0.125,0.11,0,0,0,7515,2021-01-15 19:02:15:768
9.793,0.125,0.11,0.001,0,0,7526,2021-01-15 19:02:15:779
9.793,0.125,0.11,0.001,0,0,7535,2021-01-15 19:02:15:788
9.793,0.125,0.11,0.001,0,0,7545,2021-01-15 19:02:15:798
9.793,0.125,0.11,0.001,0,0,7556,2021-01-15 19:02:15:809
9.831,0.122,0.096,0.001,0,0,7566,2021-01-15 19:02:15:819
9.831,0.122,0.096,0.001,0,0,7575,2021-01-15 19:02:15:828
9.831,0.122,0.096,0.001,0,0,7586,2021-01-15 19:02:15:839
9.831,0.122,0.096,0.001,0,0,7596,2021-01-15 19:02:15:849
9.831,0.122,0.096,0.001,0,0,7606,2021-01-15 19:02:15:859
9.831,0.122,0.096,0.001,0,0,7615,2021-01-15 19:02:15:868
9.826,0.141,0.108,0.001,0,0,7626,2021-01-15 19:02:15:879
9.826,0.141,0.108,0.001,0,0,7635,2021-01-15 19:02:15:888
9.826,0.141,0.108,0.001,0,0,7646,2021-01-15 19:02:15:899
9.826,0.141,0.108,0.001,0,0,7655,2021-01-15 19:02:15:908
9.826,0.141,0.108,0.001,0,0,7666,2021-01-15 19:02:15:919
9.826,0.141,0.108,0.001,0,0,7676,2021-01-15 19:02:15:929
9.805,0.148,0.103,0.001,0,0,7685,2021-01-15 19:02:15:938
9.805,0.148,0.103,0.001,0,0,7695,2021-01-15 19:02:15:948
9.805,0.148,0.103,0.001,0,0,7706,2021-01-15 19:02:15:959
9.805,0.148,0.103,0.001,0,0,7715,2021-01-15 19:02:15:968
9.805,0.148,0.103,0.001,0,0,7726,2021-01-15 19:02:15:979
9.805,0.148,0.103,0.001,0,0,7736,2021-01-15 19:02:15:989
9.795,0.139,0.101,0.001,0,0,7745,2021-01-15 19:02:15:998
9.795,0.139,0.101,0.001,0,0,7756,2021-01-15 19:02:16:009
9.795,0.139,0.101,0.001,0,0,7765,2021-01-15 19:02:16:018
9.795,0.139,0.101,0.001,0,0,7775,2021-01-15 19:02:16:028
9.795,0.139,0.101,0.001,0,0,7785,2021-01-15 19:02:16:038
9.795,0.139,0.101,0.001,0,0,7796,2021-01-15 19:02:16:049
9.797,0.134,0.101,0.001,0,0,7806,2021-01-15 19:02:16:059
9.797,0.134,0.101,0.001,0,0,7816,2021-01-15 19:02:16:069
9.797,0.134,0.101,0.001,0,0,7825,2021-01-15 19:02:16:078
9.797,0.134,0.101,0.001,0,0,7836,2021-01-15 19:02:16:089
9.797,0.134,0.101,0.001,0,0,7846,2021-01-15 19:02:16:099
9.797,0.134,0.101,0.001,0,0,7855,2021-01-15 19:02:16:108
9.79,0.127,0.103,0.001,0,0,7865,2021-01-15 19:02:16:118
9.79,0.127,0.103,0.001,0,0,7875,2021-01-15 19:02:16:128
9.79,0.127,0.103,0,0,0,7885,2021-01-15 19:02:16:138
9.79,0.127,0.103,0,0,0,7896,2021-01-15 19:02:16:149
9.79,0.127,0.103,0,0,0,7906,2021-01-15 19:02:16:159
9.79,0.127,0.103,0,0,0,7915,2021-01-15 19:02:16:168
9.793,0.148,0.096,0,0,0,7927,2021-01-15 19:02:16:180
9.793,0.148,0.096,0,0,0,7936,2021-01-15 19:02:16:189
9.793,0.148,0.096,0,0,0,7946,2021-01-15 19:02:16:199
9.793,0.148,0.096,0,0,0,7956,2021-01-15 19:02:16:209
9.793,0.148,0.096,0,0,0,7966,2021-01-15 19:02:16:219
9.793,0.148,0.096,0,0,0,7976,2021-01-15 19:02:16:229
9.805,0.144,0.12,0,0,0,7986,2021-01-15 19:02:16:239
9.805,0.144,0.12,0,0,0,7995,2021-01-15 19:02:16:248
9.805,0.144,0.12,0,0,0,8005,2021-01-15 19:02:16:258
9.805,0.144,0.12,0,0,0,8019,2021-01-15 19:02:16:272
9.805,0.144,0.12,0,0,0,8025,2021-01-15 19:02:16:278
9.805,0.144,0.12,0,0,0,8035,2021-01-15 19:02:16:288
9.812,0.129,0.132,0,0,0,8047,2021-01-15 19:02:16:300
9.812,0.129,0.132,0,0,0,8056,2021-01-15 19:02:16:309
9.812,0.129,0.132,0,0,0,8066,2021-01-15 19:02:16:319
9.812,0.129,0.132,0,0,0,8076,2021-01-15 19:02:16:329
9.812,0.129,0.132,0,0,0,8086,2021-01-15 19:02:16:339
9.812,0.129,0.132,0,0,0,8095,2021-01-15 19:02:16:348
9.817,0.132,0.129,0,0,0,8105,2021-01-15 19:02:16:358
9.817,0.132,0.129,0,0,0,8121,2021-01-15 19:02:16:374
9.817,0.132,0.129,0,0,0,8126,2021-01-15 19:02:16:379
9.817,0.132,0.129,0,0,0,8135,2021-01-15 19:02:16:388
9.817,0.132,0.129,0,0,0,8146,2021-01-15 19:02:16:399
9.817,0.132,0.129,0,0,0,8156,2021-01-15 19:02:16:409
9.814,0.141,0.134,0,0,0,8166,2021-01-15 19:02:16:419
9.814,0.141,0.134,0,0,0,8175,2021-01-15 19:02:16:428
9.814,0.141,0.134,0,0,0,8185,2021-01-15 19:02:16:438
9.814,0.141,0.134,0,0,0,8195,2021-01-15 19:02:16:448
9.814,0.141,0.134,0,0,0,8205,2021-01-15 19:02:16:458
9.814,0.141,0.134,0,0,0,8215,2021-01-15 19:02:16:468
9.812,0.139,0.129,0,0,0,8225,2021-01-15 19:02:16:478
9.812,0.139,0.129,0,0,0,8235,2021-01-15 19:02:16:488
9.812,0.139,0.129,0,0,0,8245,2021-01-15 19:02:16:498
9.812,0.139,0.129,0,0,0,8256,2021-01-15 19:02:16:509
9.812,0.139,0.129,0,0,0,8265,2021-01-15 19:02:16:518
9.812,0.139,0.129,0,0,0,8276,2021-01-15 19:02:16:529
9.814,0.132,0.122,0,0,0,8286,2021-01-15 19:02:16:539
9.814,0.132,0.122,0,0,0,8296,2021-01-15 19:02:16:549
9.814,0.132,0.122,0,0,0,8306,2021-01-15 19:02:16:559
9.814,0.132,0.122,0,0,0,8316,2021-01-15 19:02:16:569
9.814,0.132,0.122,0,0,0,8326,2021-01-15 19:02:16:579
9.814,0.132,0.122,0,0,0,8336,2021-01-15 19:02:16:589
9.814,0.12,0.108,0,0,0,8346,2021-01-15 19:02:16:599
9.814,0.12,0.108,0,0,0,8355,2021-01-15 19:02:16:608
9.814,0.12,0.108,0.001,0,0,8365,2021-01-15 19:02:16:618
9.814,0.12,0.108,0.001,0,0,8376,2021-01-15 19:02:16:629
9.814,0.12,0.108,0.001,0,0,8385,2021-01-15 19:02:16:638
9.814,0.12,0.108,0.001,0,0,8396,2021-01-15 19:02:16:649
9.817,0.136,0.113,0.001,0,0,8406,2021-01-15 19:02:16:659
9.817,0.136,0.113,0.001,0,0,8416,2021-01-15 19:02:16:669
9.817,0.136,0.113,0.001,0,0,8425,2021-01-15 19:02:16:678
9.817,0.136,0.113,0.001,0,0,8435,2021-01-15 19:02:16:688
9.817,0.136,0.113,0.001,0,0,8445,2021-01-15 19:02:16:698
9.817,0.136,0.113,0.001,0,0,8456,2021-01-15 19:02:16:709
9.809,0.134,0.125,0.001,0,0,8468,2021-01-15 19:02:16:721
9.809,0.134,0.125,0.001,0,0,8476,2021-01-15 19:02:16:729
9.809,0.134,0.125,0,0,0,8486,2021-01-15 19:02:16:739
9.809,0.134,0.125,0,0,0,8495,2021-01-15 19:02:16:748
9.809,0.134,0.125,0,0,0,8505,2021-01-15 19:02:16:758
9.809,0.134,0.125,0,0,0,8517,2021-01-15 19:02:16:770
9.805,0.115,0.139,0,0,0,8526,2021-01-15 19:02:16:779
9.805,0.115,0.139,0,0,0,8535,2021-01-15 19:02:16:788
9.805,0.115,0.139,0,0,0,8546,2021-01-15 19:02:16:799
9.805,0.115,0.139,0,0,0,8555,2021-01-15 19:02:16:808
9.805,0.115,0.139,0,0,0,8565,2021-01-15 19:02:16:818
9.805,0.115,0.139,0,0,0,8575,2021-01-15 19:02:16:828
9.788,0.127,0.153,0,0,0,8585,2021-01-15 19:02:16:838
9.788,0.127,0.153,0,0,0,8595,2021-01-15 19:02:16:848
9.788,0.127,0.153,0.001,0,0,8607,2021-01-15 19:02:16:860
9.788,0.127,0.153,0.001,0,0,8620,2021-01-15 19:02:16:873
9.788,0.127,0.153,0.001,0,0,8627,2021-01-15 19:02:16:880
9.788,0.127,0.153,0.001,0,0,8636,2021-01-15 19:02:16:889
9.788,0.127,0.153,0.001,0,0,8647,2021-01-15 19:02:16:900
9.79,0.136,0.156,0.001,0,0,8656,2021-01-15 19:02:16:909
9.79,0.136,0.156,0.001,0,0,8665,2021-01-15 19:02:16:918
9.79,0.136,0.156,0.001,0,0,8680,2021-01-15 19:02:16:933
9.79,0.136,0.156,0.001,0,0,8686,2021-01-15 19:02:16:939
9.79,0.136,0.156,0.001,0,0,8696,2021-01-15 19:02:16:949
9.805,0.146,0.16,0.001,0,0,8705,2021-01-15 19:02:16:958
9.805,0.146,0.16,0.001,0,0,8716,2021-01-15 19:02:16:969
9.805,0.146,0.16,0,0,0,8726,2021-01-15 19:02:16:979
9.805,0.146,0.16,0,0,0,8736,2021-01-15 19:02:16:989
9.805,0.146,0.16,0,0,0,8747,2021-01-15 19:02:17:000
9.805,0.146,0.16,0,0,0,8757,2021-01-15 19:02:17:010
9.795,0.127,0.136,0,0,0,8767,2021-01-15 19:02:17:020
9.795,0.127,0.136,0,0,0,8775,2021-01-15 19:02:17:028
9.795,0.127,0.136,0,0,0,8785,2021-01-15 19:02:17:038
9.795,0.127,0.136,0,0,0,8796,2021-01-15 19:02:17:049
9.795,0.127,0.136,0,0,0,8806,2021-01-15 19:02:17:059
9.795,0.127,0.136,0,0,0,8816,2021-01-15 19:02:17:069
9.809,0.139,0.129,0,0,0,8826,2021-01-15 19:02:17:079
9.809,0.139,0.129,0,0,0,8835,2021-01-15 19:02:17:088
9.809,0.139,0.129,0,0,0,8848,2021-01-15 19:02:17:101
9.809,0.139,0.129,0,0,0,8855,2021-01-15 19:02:17:108
9.809,0.139,0.129,0,0,0,8866,2021-01-15 19:02:17:119
9.809,0.139,0.129,0,0,0,8876,2021-01-15 19:02:17:129
9.817,0.122,0.139,0,0,0,8886,2021-01-15 19:02:17:139
9.817,0.122,0.139,0,0,0,8895,2021-01-15 19:02:17:148
9.817,0.122,0.139,0,0,0,8905,2021-01-15 19:02:17:158
9.817,0.122,0.139,0,0,0,8918,2021-01-15 19:02:17:171
9.817,0.122,0.139,0,0,0,8925,2021-01-15 19:02:17:178
9.817,0.122,0.139,0,0,0,8936,2021-01-15 19:02:17:189
9.812,0.134,0.134,0,0,0,8949,2021-01-15 19:02:17:202
9.812,0.134,0.134,0,0,0,8963,2021-01-15 19:02:17:216
9.812,0.134,0.134,0,0,0,8965,2021-01-15 19:02:17:218
9.812,0.134,0.134,0,0,0,8975,2021-01-15 19:02:17:228
9.812,0.134,0.134,0,0,0,8989,2021-01-15 19:02:17:242
9.812,0.134,0.134,0,0,0,8998,2021-01-15 19:02:17:251
9.821,0.122,0.144,0,0,0,9005,2021-01-15 19:02:17:258
9.821,0.122,0.144,0,0,0,9015,2021-01-15 19:02:17:268
9.821,0.122,0.144,0,0,0,9026,2021-01-15 19:02:17:279
9.821,0.122,0.144,0,0,0,9035,2021-01-15 19:02:17:288
9.821,0.122,0.144,0,0,0,9046,2021-01-15 19:02:17:299
9.821,0.122,0.144,0,0,0,9055,2021-01-15 19:02:17:308
9.795,0.134,0.127,0,0,0,9068,2021-01-15 19:02:17:321
9.795,0.134,0.127,0,0,0,9076,2021-01-15 19:02:17:329
9.795,0.134,0.127,0,0,0,9086,2021-01-15 19:02:17:339
9.795,0.134,0.127,0,0,0,9096,2021-01-15 19:02:17:349
9.795,0.134,0.127,0,0,0,9106,2021-01-15 19:02:17:359
9.795,0.134,0.127,0,0,0,9116,2021-01-15 19:02:17:369
9.805,0.134,0.134,0,0,0,9126,2021-01-15 19:02:17:379
9.805,0.134,0.134,0,0,0,9135,2021-01-15 19:02:17:388
9.805,0.134,0.134,0,0,0,9146,2021-01-15 19:02:17:399
9.805,0.134,0.134,0,0,0,9155,2021-01-15 19:02:17:408
9.805,0.134,0.134,0,0,0,9166,2021-01-15 19:02:17:419
9.805,0.134,0.134,0,0,0,9176,2021-01-15 19:02:17:429
9.805,0.134,0.134,0,0,0,9186,2021-01-15 19:02:17:439
9.824,0.134,0.127,0,0,0,9195,2021-01-15 19:02:17:448
9.824,0.134,0.127,0,0,0,9205,2021-01-15 19:02:17:458
9.824,0.134,0.127,0,0,0,9221,2021-01-15 19:02:17:474
9.824,0.134,0.127,0,0,0,9229,2021-01-15 19:02:17:482
9.824,0.134,0.127,0,0,0,9237,2021-01-15 19:02:17:490
9.824,0.134,0.127,0,0,0,9246,2021-01-15 19:02:17:499
9.824,0.134,0.127,0,0,0,9256,2021-01-15 19:02:17:509
9.802,0.134,0.12,0,0,0,9271,2021-01-15 19:02:17:524
9.802,0.134,0.12,0,0,0,9275,2021-01-15 19:02:17:528
9.802,0.134,0.12,0,0,0,9286,2021-01-15 19:02:17:539
9.802,0.134,0.12,0,0,0,9298,2021-01-15 19:02:17:551
9.802,0.134,0.12,0,0,0,9306,2021-01-15 19:02:17:559
9.802,0.134,0.12,0,0,0,9316,2021-01-15 19:02:17:569
9.812,0.136,0.125,0,0,0,9325,2021-01-15 19:02:17:578
9.812,0.136,0.125,0,0,0,9336,2021-01-15 19:02:17:589
9.812,0.136,0.125,0,0,0,9345,2021-01-15 19:02:17:598
9.812,0.136,0.125,0,0,0,9358,2021-01-15 19:02:17:611
9.812,0.136,0.125,0,0,0,9365,2021-01-15 19:02:17:618
9.812,0.136,0.125,0,0,0,9377,2021-01-15 19:02:17:630
9.8,0.134,0.115,0,0,0,9386,2021-01-15 19:02:17:639
9.8,0.134,0.115,0,0,0,9396,2021-01-15 19:02:17:649
9.8,0.134,0.115,0,0,0,9406,2021-01-15 19:02:17:659
9.8,0.134,0.115,0,0,0,9416,2021-01-15 19:02:17:669
9.8,0.134,0.115,0,0,0,9428,2021-01-15 19:02:17:681
9.8,0.134,0.115,0,0,0,9436,2021-01-15 19:02:17:689
9.824,0.139,0.125,0,0,0,9446,2021-01-15 19:02:17:699
9.824,0.139,0.125,0,0,0,9456,2021-01-15 19:02:17:709
9.824,0.139,0.125,0,0,0,9467,2021-01-15 19:02:17:720
9.824,0.139,0.125,0,0,0,9478,2021-01-15 19:02:17:731
9.824,0.139,0.125,0,0,0,9490,2021-01-15 19:02:17:743
9.824,0.139,0.125,0,0,0,9496,2021-01-15 19:02:17:749
9.824,0.139,0.125,0,0,0,9505,2021-01-15 19:02:17:758
9.802,0.141,0.108,0,0,0,9515,2021-01-15 19:02:17:768
9.802,0.141,0.108,0,0,0,9526,2021-01-15 19:02:17:779
9.802,0.141,0.108,0,0,0,9536,2021-01-15 19:02:17:789
9.802,0.141,0.108,0,0,0,9545,2021-01-15 19:02:17:798
9.802,0.141,0.108,0,0,0,9558,2021-01-15 19:02:17:811
9.828,0.127,0.105,0,0,0,9566,2021-01-15 19:02:17:819
9.828,0.127,0.105,0,0,0,9576,2021-01-15 19:02:17:829
9.828,0.127,0.105,0,0,0,9586,2021-01-15 19:02:17:839
9.828,0.127,0.105,0,0,0,9596,2021-01-15 19:02:17:849
9.828,0.127,0.105,0,0,0,9606,2021-01-15 19:02:17:859
9.828,0.127,0.105,0,0,0,9615,2021-01-15 19:02:17:868
9.814,0.148,0.122,0,0,0,9626,2021-01-15 19:02:17:879
9.814,0.148,0.122,0,0,0,9635,2021-01-15 19:02:17:888
9.814,0.148,0.122,0,0,0,9646,2021-01-15 19:02:17:899
9.814,0.148,0.122,0,0,0,9656,2021-01-15 19:02:17:909
9.814,0.148,0.122,0,0,0,9665,2021-01-15 19:02:17:918
9.814,0.148,0.122,0,0,0,9681,2021-01-15 19:02:17:934
9.795,0.134,0.127,0,0,0,9694,2021-01-15 19:02:17:947
9.795,0.134,0.127,0,0,0,9696,2021-01-15 19:02:17:949
9.795,0.134,0.127,0,0,0,9705,2021-01-15 19:02:17:958
9.795,0.134,0.127,0,0,0,9715,2021-01-15 19:02:17:968
9.795,0.134,0.127,0,0,0,9725,2021-01-15 19:02:17:978
9.795,0.134,0.127,0,0,0,9737,2021-01-15 19:02:17:990
9.802,0.134,0.101,0,0,0,9746,2021-01-15 19:02:17:999
9.802,0.134,0.101,0,0,0,9756,2021-01-15 19:02:18:009
9.802,0.134,0.101,0,0,0,9773,2021-01-15 19:02:18:026
9.802,0.134,0.101,0,0,0,9776,2021-01-15 19:02:18:029
9.802,0.134,0.101,0,0,0,9785,2021-01-15 19:02:18:038
9.802,0.134,0.101,0,0,0,9797,2021-01-15 19:02:18:050
9.817,0.144,0.105,0.001,0,0,9809,2021-01-15 19:02:18:062
9.817,0.144,0.105,0.001,0,0,9816,2021-01-15 19:02:18:069
9.817,0.144,0.105,0.001,0,0,9825,2021-01-15 19:02:18:078
9.817,0.144,0.105,0.001,0,0,9836,2021-01-15 19:02:18:089
9.817,0.144,0.105,0.001,0,0,9846,2021-01-15 19:02:18:099
9.817,0.144,0.105,0.001,0,0,9856,2021-01-15 19:02:18:109
9.817,0.127,0.105,0.001,0,0,9866,2021-01-15 19:02:18:119
9.817,0.127,0.105,0.001,0,0,9876,2021-01-15 19:02:18:129
9.817,0.127,0.105,0.001,0,0,9886,2021-01-15 19:02:18:139
9.817,0.127,0.105,0.001,0,0,9896,2021-01-15 19:02:18:149
9.817,0.127,0.105,0.001,0,0,9911,2021-01-15 19:02:18:164
9.817,0.127,0.105,0.001,0,0,9915,2021-01-15 19:02:18:168
9.817,0.127,0.105,0.001,0,0,9926,2021-01-15 19:02:18:179
9.809,0.129,0.096,0,0,0,9936,2021-01-15 19:02:18:189
9.809,0.129,0.096,0,0,0,9947,2021-01-15 19:02:18:200
9.809,0.129,0.096,0,0,0,9956,2021-01-15 19:02:18:209
9.809,0.129,0.096,0,0,0,9966,2021-01-15 19:02:18:219
9.809,0.129,0.096,0,0,0,9975,2021-01-15 19:02:18:228
9.809,0.141,0.103,0,0,0,9985,2021-01-15 19:02:18:238
9.809,0.141,0.103,0,0,0,9995,2021-01-15 19:02:18:248
9.809,0.141,0.103,0,0,0,10006,2021-01-15 19:02:18:259
9.809,0.141,0.103,0,0,0,10016,2021-01-15 19:02:18:269
9.809,0.141,0.103,0,0,0,10025,2021-01-15 19:02:18:278
9.809,0.141,0.103,0,0,0,10036,2021-01-15 19:02:18:289
9.812,0.129,0.089,0,0,0,10046,2021-01-15 19:02:18:299
9.812,0.129,0.089,0,0,0,10055,2021-01-15 19:02:18:308
9.812,0.129,0.089,0,0,0,10067,2021-01-15 19:02:18:320
9.812,0.129,0.089,0,0,0,10077,2021-01-15 19:02:18:330
9.812,0.129,0.089,0,0,0,10086,2021-01-15 19:02:18:339
9.812,0.129,0.089,0,0,0,10095,2021-01-15 19:02:18:348
9.79,0.132,0.12,0,0,0,10106,2021-01-15 19:02:18:359
9.79,0.132,0.12,0,0,0,10116,2021-01-15 19:02:18:369
9.79,0.132,0.12,0,0,0,10125,2021-01-15 19:02:18:378
9.79,0.132,0.12,0,0,0,10136,2021-01-15 19:02:18:389
9.79,0.132,0.12,0,0,0,10146,2021-01-15 19:02:18:399
9.79,0.132,0.12,0,0,0,10159,2021-01-15 19:02:18:412
9.812,0.129,0.093,0,0,0,10166,2021-01-15 19:02:18:419
9.812,0.129,0.093,0,0,0,10177,2021-01-15 19:02:18:430
9.812,0.129,0.093,0,0,0,10185,2021-01-15 19:02:18:438
9.812,0.129,0.093,0,0,0,10195,2021-01-15 19:02:18:448
9.812,0.129,0.093,0,0,0,10209,2021-01-15 19:02:18:462
9.812,0.129,0.093,0,0,0,10216,2021-01-15 19:02:18:469
9.797,0.125,0.108,0,0,0,10226,2021-01-15 19:02:18:479
9.797,0.125,0.108,0,0,0,10236,2021-01-15 19:02:18:489
9.797,0.125,0.108,0,0,0,10246,2021-01-15 19:02:18:499
9.797,0.125,0.108,0,0,0,10256,2021-01-15 19:02:18:509
9.797,0.125,0.108,0,0,0,10266,2021-01-15 19:02:18:519
9.797,0.125,0.108,0,0,0,10275,2021-01-15 19:02:18:528
9.805,0.132,0.093,0,0,0,10285,2021-01-15 19:02:18:538
9.805,0.132,0.093,0,0,0,10296,2021-01-15 19:02:18:549
9.805,0.132,0.093,0,0,0,10306,2021-01-15 19:02:18:559
9.805,0.132,0.093,0,0,0,10316,2021-01-15 19:02:18:569
9.805,0.132,0.093,0,0,0,10326,2021-01-15 19:02:18:579
9.805,0.132,0.093,0,0,0,10336,2021-01-15 19:02:18:589
9.807,0.122,0.101,0,0,0,10346,2021-01-15 19:02:18:599
9.807,0.122,0.101,0,0,0,10356,2021-01-15 19:02:18:609
9.807,0.122,0.101,0,0,0,10366,2021-01-15 19:02:18:619
9.807,0.122,0.101,0,0,0,10375,2021-01-15 19:02:18:628
9.807,0.122,0.101,0,0,0,10385,2021-01-15 19:02:18:638
9.807,0.122,0.101,0,0,0,10396,2021-01-15 19:02:18:649
9.8,0.129,0.079,0,0,0,10406,2021-01-15 19:02:18:659
9.8,0.129,0.079,0,0,0,10416,2021-01-15 19:02:18:669
9.8,0.129,0.079,0,0,0,10425,2021-01-15 19:02:18:678
9.8,0.129,0.079,0,0,0,10435,2021-01-15 19:02:18:688
9.8,0.129,0.079,0,0,0,10445,2021-01-15 19:02:18:698
9.8,0.129,0.079,0,0,0,10455,2021-01-15 19:02:18:708
9.805,0.134,0.103,0,0,0,10465,2021-01-15 19:02:18:718
9.805,0.134,0.103,0,0,0,10475,2021-01-15 19:02:18:728
9.805,0.134,0.103,0,0,0,10486,2021-01-15 19:02:18:739
9.805,0.134,0.103,0,0,0,10496,2021-01-15 19:02:18:749
9.805,0.134,0.103,0,0,0,10505,2021-01-15 19:02:18:758
9.805,0.134,0.103,0,0,0,10516,2021-01-15 19:02:18:769
9.8,0.144,0.101,0.001,0,0,10527,2021-01-15 19:02:18:780
9.8,0.144,0.101,0.001,0,0,10536,2021-01-15 19:02:18:789
9.8,0.144,0.101,0.001,0,0,10546,2021-01-15 19:02:18:799
9.8,0.144,0.101,0.001,0,0,10555,2021-01-15 19:02:18:808
9.8,0.144,0.101,0.001,0,0,10566,2021-01-15 19:02:18:819
9.8,0.144,0.101,0.001,0,0,10576,2021-01-15 19:02:18:829
9.8,0.144,0.101,0.001,0,0,10586,2021-01-15 19:02:18:839
9.807,0.127,0.101,0.001,0,0,10596,2021-01-15 19:02:18:849
9.807,0.127,0.101,0.001,0,0,10605,2021-01-15 19:02:18:858
9.807,0.127,0.101,0.001,0,0,10615,2021-01-15 19:02:18:868
9.807,0.127,0.101,0.001,0,0,10626,2021-01-15 19:02:18:879
9.807,0.127,0.101,0.001,0,0,10636,2021-01-15 19:02:18:889
9.814,0.139,0.098,0,0,0,10646,2021-01-15 19:02:18:899
9.814,0.139,0.098,0,0,0,10656,2021-01-15 19:02:18:909
9.814,0.139,0.098,0,0,0,10665,2021-01-15 19:02:18:918
9.814,0.139,0.098,0,0,0,10680,2021-01-15 19:02:18:933
9.814,0.139,0.098,0,0,0,10686,2021-01-15 19:02:18:939
9.814,0.139,0.098,0,0,0,10696,2021-01-15 19:02:18:949
9.809,0.158,0.091,0,0,0,10708,2021-01-15 19:02:18:961
9.809,0.158,0.091,0,0,0,10715,2021-01-15 19:02:18:968
9.809,0.158,0.091,0,0,0,10725,2021-01-15 19:02:18:978
9.809,0.158,0.091,0,0,0,10736,2021-01-15 19:02:18:989
9.809,0.158,0.091,0,0,0,10746,2021-01-15 19:02:18:999
9.809,0.158,0.091,0,0,0,10757,2021-01-15 19:02:19:010
9.831,0.113,0.079,0,0,0,10766,2021-01-15 19:02:19:019
9.831,0.113,0.079,0,0,0,10777,2021-01-15 19:02:19:030
9.831,0.113,0.079,0,0,0,10786,2021-01-15 19:02:19:039
9.831,0.113,0.079,0,0,0,10796,2021-01-15 19:02:19:049
9.831,0.113,0.079,0,0,0,10806,2021-01-15 19:02:19:059
9.831,0.113,0.079,0,0,0,10815,2021-01-15 19:02:19:068
9.821,0.144,0.096,0,0,0,10825,2021-01-15 19:02:19:078
9.821,0.144,0.096,0,0,0,10835,2021-01-15 19:02:19:088
9.821,0.144,0.096,0,0,0,10845,2021-01-15 19:02:19:098
9.821,0.144,0.096,0,0,0,10855,2021-01-15 19:02:19:108
9.821,0.144,0.096,0,0,0,10866,2021-01-15 19:02:19:119
9.821,0.144,0.096,0,0,0,10876,2021-01-15 19:02:19:129
9.795,0.136,0.084,0,0,0,10886,2021-01-15 19:02:19:139
9.795,0.136,0.084,0,0,0,10895,2021-01-15 19:02:19:148
9.795,0.136,0.084,0,0,0,10906,2021-01-15 19:02:19:159
9.795,0.136,0.084,0,0,0,10916,2021-01-15 19:02:19:169
9.795,0.136,0.084,0,0,0,10926,2021-01-15 19:02:19:179
9.795,0.136,0.084,0,0,0,10936,2021-01-15 19:02:19:189
9.797,0.129,0.084,0,0,0,10946,2021-01-15 19:02:19:199
9.797,0.129,0.084,0,0,0,10956,2021-01-15 19:02:19:209
9.797,0.129,0.084,0,0,0,10965,2021-01-15 19:02:19:218
9.797,0.129,0.084,0,0,0,10975,2021-01-15 19:02:19:228
9.797,0.129,0.084,0,0,0,10986,2021-01-15 19:02:19:239
9.797,0.129,0.084,0,0,0,10996,2021-01-15 19:02:19:249
9.817,0.134,0.091,0,0,0,11005,2021-01-15 19:02:19:258
9.817,0.134,0.091,0,0,0,11016,2021-01-15 19:02:19:269
9.817,0.134,0.091,0,0,0,11026,2021-01-15 19:02:19:279
9.817,0.134,0.091,0,0,0,11036,2021-01-15 19:02:19:289
9.817,0.134,0.091,0,0,0,11045,2021-01-15 19:02:19:298
9.817,0.134,0.091,0,0,0,11056,2021-01-15 19:02:19:309
9.807,0.129,0.091,0,0,0,11065,2021-01-15 19:02:19:318
9.807,0.129,0.091,0,0,0,11075,2021-01-15 19:02:19:328
9.807,0.129,0.091,0,0,0,11087,2021-01-15 19:02:19:340
9.807,0.129,0.091,0,0,0,11097,2021-01-15 19:02:19:350
9.807,0.129,0.091,0,0,0,11105,2021-01-15 19:02:19:358
9.807,0.129,0.091,0,0,0,11121,2021-01-15 19:02:19:374
9.805,0.127,0.108,0,0,0,11126,2021-01-15 19:02:19:379
9.805,0.127,0.108,0,0,0,11136,2021-01-15 19:02:19:389
9.805,0.127,0.108,0,0,0,11145,2021-01-15 19:02:19:398
9.805,0.127,0.108,0,0,0,11155,2021-01-15 19:02:19:408
9.805,0.127,0.108,0,0,0,11165,2021-01-15 19:02:19:418
9.805,0.127,0.108,0,0,0,11176,2021-01-15 19:02:19:429
9.788,0.141,0.098,0,0,0,11185,2021-01-15 19:02:19:438
9.788,0.141,0.098,0,0,0,11196,2021-01-15 19:02:19:449
9.788,0.141,0.098,0,0,0,11206,2021-01-15 19:02:19:459
9.788,0.141,0.098,0,0,0,11216,2021-01-15 19:02:19:469
9.788,0.141,0.098,0,0,0,11226,2021-01-15 19:02:19:479
9.788,0.141,0.098,0,0,0,11236,2021-01-15 19:02:19:489
9.805,0.139,0.105,0,0,0,11245,2021-01-15 19:02:19:498
9.805,0.139,0.105,0,0,0,11255,2021-01-15 19:02:19:508
9.805,0.139,0.105,0,0,0,11265,2021-01-15 19:02:19:518
9.805,0.139,0.105,0,0,0,11275,2021-01-15 19:02:19:528
9.805,0.139,0.105,0,0,0,11286,2021-01-15 19:02:19:539
9.805,0.139,0.105,0,0,0,11296,2021-01-15 19:02:19:549
9.828,0.129,0.084,0,0,0,11306,2021-01-15 19:02:19:559
9.828,0.129,0.084,0,0,0,11316,2021-01-15 19:02:19:569
9.828,0.129,0.084,0,0,0,11326,2021-01-15 19:02:19:579
9.828,0.129,0.084,0,0,0,11336,2021-01-15 19:02:19:589
9.828,0.129,0.084,0,0,0,11345,2021-01-15 19:02:19:598
9.828,0.129,0.084,0,0,0,11356,2021-01-15 19:02:19:609
9.812,0.134,0.113,0,0,0,11366,2021-01-15 19:02:19:619
9.812,0.134,0.113,0,0,0,11375,2021-01-15 19:02:19:628
9.812,0.134,0.113,0,0,0,11386,2021-01-15 19:02:19:639
9.812,0.134,0.113,0,0,0,11396,2021-01-15 19:02:19:649
9.812,0.134,0.113,0,0,0,11406,2021-01-15 19:02:19:659
9.812,0.134,0.113,0,0,0,11415,2021-01-15 19:02:19:668
9.814,0.144,0.096,0,0,0,11426,2021-01-15 19:02:19:679
9.814,0.144,0.096,0,0,0,11435,2021-01-15 19:02:19:688
9.814,0.144,0.096,0,0,0,11446,2021-01-15 19:02:19:699
9.814,0.144,0.096,0,0,0,11456,2021-01-15 19:02:19:709
9.814,0.144,0.096,0,0,0,11466,2021-01-15 19:02:19:719
9.814,0.144,0.096,0,0,0,11475,2021-01-15 19:02:19:728
9.807,0.144,0.113,0,0,0,11485,2021-01-15 19:02:19:738
9.807,0.144,0.113,0,0,0,11495,2021-01-15 19:02:19:748
9.807,0.144,0.113,0,0,0,11507,2021-01-15 19:02:19:760
9.807,0.144,0.113,0,0,0,11516,2021-01-15 19:02:19:769
9.807,0.144,0.113,0,0,0,11525,2021-01-15 19:02:19:778
9.807,0.144,0.113,0,0,0,11535,2021-01-15 19:02:19:788
9.817,0.132,0.113,0,0,0,11546,2021-01-15 19:02:19:799
9.817,0.132,0.113,0,0,0,11556,2021-01-15 19:02:19:809
9.817,0.132,0.113,0,0,0,11569,2021-01-15 19:02:19:822
9.817,0.132,0.113,0,0,0,11576,2021-01-15 19:02:19:829
9.817,0.132,0.113,0,0,0,11585,2021-01-15 19:02:19:838
9.817,0.132,0.113,0,0,0,11595,2021-01-15 19:02:19:848
9.793,0.132,0.103,0.001,0,0,11605,2021-01-15 19:02:19:858
9.793,0.132,0.103,0.001,0,0,11616,2021-01-15 19:02:19:869
9.793,0.132,0.103,0.001,0,0,11626,2021-01-15 19:02:19:879
9.793,0.132,0.103,0.001,0,0,11636,2021-01-15 19:02:19:889
9.793,0.132,0.103,0.001,0,0,11647,2021-01-15 19:02:19:900
9.793,0.132,0.103,0.001,0,0,11656,2021-01-15 19:02:19:909
9.802,0.136,0.127,0.001,0,0,11666,2021-01-15 19:02:19:919
9.802,0.136,0.127,0.001,0,0,11676,2021-01-15 19:02:19:929
9.802,0.136,0.127,0.001,0,0,11685,2021-01-15 19:02:19:938
9.802,0.136,0.127,0.001,0,0,11695,2021-01-15 19:02:19:948
9.802,0.136,0.127,0.001,0,0,11706,2021-01-15 19:02:19:959
9.802,0.136,0.127,0.001,0,0,11716,2021-01-15 19:02:19:969
9.797,0.136,0.103,0,0,0,11725,2021-01-15 19:02:19:978
9.797,0.136,0.103,0,0,0,11737,2021-01-15 19:02:19:990
9.797,0.136,0.103,0,0,0,11746,2021-01-15 19:02:19:999
9.797,0.136,0.103,0,0,0,11756,2021-01-15 19:02:20:009
9.797,0.136,0.103,0,0,0,11766,2021-01-15 19:02:20:019
9.797,0.136,0.103,0,0,0,11775,2021-01-15 19:02:20:028
9.795,0.132,0.12,0,0,0,11785,2021-01-15 19:02:20:038
9.795,0.132,0.12,0,0,0,11796,2021-01-15 19:02:20:049
9.795,0.132,0.12,0,0,0,11805,2021-01-15 19:02:20:058
9.795,0.132,0.12,0,0,0,11816,2021-01-15 19:02:20:069
9.795,0.132,0.12,0,0,0,11826,2021-01-15 19:02:20:079
9.795,0.132,0.12,0,0,0,11835,2021-01-15 19:02:20:088
9.821,0.139,0.115,0,0,0,11846,2021-01-15 19:02:20:099
9.821,0.139,0.115,0,0,0,11856,2021-01-15 19:02:20:109
9.821,0.139,0.115,0,0,0,11866,2021-01-15 19:02:20:119
9.821,0.139,0.115,0,0,0,11876,2021-01-15 19:02:20:129
9.821,0.139,0.115,0,0,0,11885,2021-01-15 19:02:20:138
9.821,0.139,0.115,0,0,0,11896,2021-01-15 19:02:20:149
9.812,0.148,0.12,0,0,0,11905,2021-01-15 19:02:20:158
9.812,0.148,0.12,0,0,0,11916,2021-01-15 19:02:20:169
9.812,0.148,0.12,0,0,0,11925,2021-01-15 19:02:20:178
9.812,0.148,0.12,0,0,0,11936,2021-01-15 19:02:20:189
9.812,0.148,0.12,0,0,0,11946,2021-01-15 19:02:20:199
9.812,0.148,0.12,0,0,0,11956,2021-01-15 19:02:20:209
9.814,0.148,0.11,0.001,0,0,11966,2021-01-15 19:02:20:219
9.814,0.148,0.11,0.001,0,0,11975,2021-01-15 19:02:20:228
9.814,0.148,0.11,0.001,0,0,11986,2021-01-15 19:02:20:239
9.814,0.148,0.11,0.001,0,0,11995,2021-01-15 19:02:20:248
9.814,0.148,0.11,0.001,0,0,12005,2021-01-15 19:02:20:258
9.814,0.148,0.11,0.001,0,0,12016,2021-01-15 19:02:20:269
9.809,0.125,0.098,0.001,0,0,12025,2021-01-15 19:02:20:278
9.809,0.125,0.098,0.001,0,0,12036,2021-01-15 19:02:20:289
9.809,0.125,0.098,0.001,0,0,12046,2021-01-15 19:02:20:299
9.809,0.125,0.098,0.001,0,0,12057,2021-01-15 19:02:20:310
9.809,0.125,0.098,0.001,0,0,12066,2021-01-15 19:02:20:319
9.809,0.125,0.098,0.001,0,0,12075,2021-01-15 19:02:20:328
9.807,0.151,0.096,0,0,0,12085,2021-01-15 19:02:20:338
9.807,0.151,0.096,0,0,0,12096,2021-01-15 19:02:20:349
9.807,0.151,0.096,0,0,0,12106,2021-01-15 19:02:20:359
9.807,0.151,0.096,0,0,0,12117,2021-01-15 19:02:20:370
9.807,0.151,0.096,0,0,0,12125,2021-01-15 19:02:20:378
9.807,0.151,0.096,0,0,0,12136,2021-01-15 19:02:20:389
9.809,0.136,0.086,0,0,0,12146,2021-01-15 19:02:20:399
9.809,0.136,0.086,0,0,0,12157,2021-01-15 19:02:20:410
9.809,0.136,0.086,0,0,0,12166,2021-01-15 19:02:20:419
9.809,0.136,0.086,0,0,0,12175,2021-01-15 19:02:20:428
9.809,0.136,0.086,0,0,0,12187,2021-01-15 19:02:20:440
9.809,0.136,0.086,0,0,0,12196,2021-01-15 19:02:20:449
9.824,0.129,0.11,0,0,0,12206,2021-01-15 19:02:20:459
9.824,0.129,0.11,0,0,0,12216,2021-01-15 19:02:20:469
9.824,0.129,0.11,0,0,0,12227,2021-01-15 19:02:20:480
9.824,0.129,0.11,0,0,0,12235,2021-01-15 19:02:20:488
9.824,0.129,0.11,0,0,0,12245,2021-01-15 19:02:20:498
9.824,0.129,0.11,0,0,0,12257,2021-01-15 19:02:20:510
9.809,0.129,0.098,0,0,0,12266,2021-01-15 19:02:20:519
9.809,0.129,0.098,0,0,0,12276,2021-01-15 19:02:20:529
9.809,0.129,0.098,0,0,0,12286,2021-01-15 19:02:20:539
9.809,0.129,0.098,0,0,0,12296,2021-01-15 19:02:20:549
9.809,0.129,0.098,0,0,0,12307,2021-01-15 19:02:20:560
9.809,0.129,0.098,0,0,0,12316,2021-01-15 19:02:20:569
9.814,0.129,0.089,0,0,0,12326,2021-01-15 19:02:20:579
9.814,0.129,0.089,0,0,0,12336,2021-01-15 19:02:20:589
9.814,0.129,0.089,0,0,0,12347,2021-01-15 19:02:20:600
9.814,0.129,0.089,0,0,0,12356,2021-01-15 19:02:20:609
9.814,0.129,0.089,0,0,0,12366,2021-01-15 19:02:20:619
9.814,0.129,0.089,0,0,0,12378,2021-01-15 19:02:20:631
9.817,0.129,0.103,0,0,0,12386,2021-01-15 19:02:20:639
9.817,0.129,0.103,0,0,0,12396,2021-01-15 19:02:20:649
9.817,0.129,0.103,0,0,0,12406,2021-01-15 19:02:20:659
9.817,0.129,0.103,0,0,0,12415,2021-01-15 19:02:20:668
9.817,0.129,0.103,0,0,0,12425,2021-01-15 19:02:20:678
9.817,0.129,0.103,0,0,0,12435,2021-01-15 19:02:20:688
9.819,0.136,0.096,0,0,0,12450,2021-01-15 19:02:20:703
9.819,0.136,0.096,0,0,0,12456,2021-01-15 19:02:20:709
9.819,0.136,0.096,0,0,0,12469,2021-01-15 19:02:20:722
9.819,0.136,0.096,0,0,0,12477,2021-01-15 19:02:20:730
9.819,0.136,0.096,0,0,0,12486,2021-01-15 19:02:20:739
9.819,0.136,0.096,0,0,0,12496,2021-01-15 19:02:20:749
9.819,0.136,0.096,0,0,0,12505,2021-01-15 19:02:20:758
9.819,0.136,0.096,0,0,0,12516,2021-01-15 19:02:20:769
9.814,0.136,0.105,0,0,0,12526,2021-01-15 19:02:20:779
9.814,0.136,0.105,0,0,0,12536,2021-01-15 19:02:20:789
9.814,0.136,0.105,0,0,0,12546,2021-01-15 19:02:20:799
9.814,0.136,0.105,0,0,0,12556,2021-01-15 19:02:20:809
9.814,0.136,0.105,0,0,0,12566,2021-01-15 19:02:20:819
9.814,0.136,0.105,0,0,0,12576,2021-01-15 19:02:20:829
9.805,0.144,0.105,0,0,0,12585,2021-01-15 19:02:20:838
9.805,0.144,0.105,0,0,0,12595,2021-01-15 19:02:20:848
9.805,0.144,0.105,0,0,0,12608,2021-01-15 19:02:20:861
9.805,0.144,0.105,0,0,0,12615,2021-01-15 19:02:20:868
9.805,0.144,0.105,0,0,0,12626,2021-01-15 19:02:20:879
9.805,0.144,0.105,0,0,0,12635,2021-01-15 19:02:20:888
9.836,0.141,0.093,0,0,0,12645,2021-01-15 19:02:20:898
9.836,0.141,0.093,0,0,0,12656,2021-01-15 19:02:20:909
9.836,0.141,0.093,0,0,0,12666,2021-01-15 19:02:20:919
9.836,0.141,0.093,0,0,0,12676,2021-01-15 19:02:20:929
9.836,0.141,0.093,0,0,0,12686,2021-01-15 19:02:20:939
9.836,0.141,0.093,0,0,0,12696,2021-01-15 19:02:20:949
9.805,0.144,0.089,0,0,0,12708,2021-01-15 19:02:20:961
9.805,0.144,0.089,0,0,0,12716,2021-01-15 19:02:20:969
9.805,0.144,0.089,0,0,0,12726,2021-01-15 19:02:20:979
9.805,0.144,0.089,0,0,0,12735,2021-01-15 19:02:20:988
9.805,0.144,0.089,0,0,0,12745,2021-01-15 19:02:20:998
9.805,0.144,0.089,0,0,0,12755,2021-01-15 19:02:21:008
9.809,0.139,0.091,0,0,0,12766,2021-01-15 19:02:21:019
9.809,0.139,0.091,0,0,0,12775,2021-01-15 19:02:21:028
9.809,0.139,0.091,0,0,0,12786,2021-01-15 19:02:21:039
9.809,0.139,0.091,0,0,0,12796,2021-01-15 19:02:21:049
9.809,0.139,0.091,0,0,0,12806,2021-01-15 19:02:21:059
9.809,0.139,0.091,0,0,0,12818,2021-01-15 19:02:21:071
9.814,0.132,0.117,0,0,0,12828,2021-01-15 19:02:21:081
9.814,0.132,0.117,0,0,0,12836,2021-01-15 19:02:21:089
9.814,0.132,0.117,0,0,0,12848,2021-01-15 19:02:21:101
9.814,0.132,0.117,0,0,0,12856,2021-01-15 19:02:21:109
9.814,0.132,0.117,0,0,0,12866,2021-01-15 19:02:21:119
9.814,0.132,0.117,0,0,0,12877,2021-01-15 19:02:21:130
9.802,0.136,0.11,0,0,0,12885,2021-01-15 19:02:21:138
9.802,0.136,0.11,0,0,0,12895,2021-01-15 19:02:21:148
9.802,0.136,0.11,0,0,0,12905,2021-01-15 19:02:21:158
9.802,0.136,0.11,0,0,0,12916,2021-01-15 19:02:21:169
9.802,0.136,0.11,0,0,0,12928,2021-01-15 19:02:21:181
9.802,0.136,0.11,0,0,0,12936,2021-01-15 19:02:21:189
9.819,0.129,0.115,0,0,0,12953,2021-01-15 19:02:21:206
9.819,0.129,0.115,0,0,0,12957,2021-01-15 19:02:21:210
9.819,0.129,0.115,0,0,0,12966,2021-01-15 19:02:21:219
9.819,0.129,0.115,0,0,0,12975,2021-01-15 19:02:21:228
9.819,0.129,0.115,0,0,0,12985,2021-01-15 19:02:21:238
9.819,0.129,0.115,0,0,0,12996,2021-01-15 19:02:21:249
9.821,0.136,0.132,0,0,0,13007,2021-01-15 19:02:21:260
9.821,0.136,0.132,0,0,0,13016,2021-01-15 19:02:21:269
9.821,0.136,0.132,0,0,0,13026,2021-01-15 19:02:21:279
9.821,0.136,0.132,0,0,0,13035,2021-01-15 19:02:21:288
9.821,0.136,0.132,0,0,0,13048,2021-01-15 19:02:21:301
9.821,0.136,0.132,0,0,0,13056,2021-01-15 19:02:21:309
9.8,0.134,0.129,0,0,0,13070,2021-01-15 19:02:21:323
9.8,0.134,0.129,0,0,0,13077,2021-01-15 19:02:21:330
9.8,0.134,0.129,0,0,0,13085,2021-01-15 19:02:21:338
9.8,0.134,0.129,0,0,0,13096,2021-01-15 19:02:21:349
9.8,0.134,0.129,0,0,0,13106,2021-01-15 19:02:21:359
9.8,0.134,0.129,0,0,0,13116,2021-01-15 19:02:21:369
9.807,0.136,0.132,0,0,0,13129,2021-01-15 19:02:21:382
9.807,0.136,0.132,0,0,0,13136,2021-01-15 19:02:21:389
9.807,0.136,0.132,0,0,0,13146,2021-01-15 19:02:21:399
9.807,0.136,0.132,0,0,0,13156,2021-01-15 19:02:21:409
9.807,0.136,0.132,0,0,0,13168,2021-01-15 19:02:21:421
9.807,0.136,0.132,0,0,0,13176,2021-01-15 19:02:21:429
9.802,0.146,0.117,0,0,0,13186,2021-01-15 19:02:21:439
9.802,0.146,0.117,0,0,0,13199,2021-01-15 19:02:21:452
9.802,0.146,0.117,0,0,0,13205,2021-01-15 19:02:21:458
9.802,0.146,0.117,0,0,0,13217,2021-01-15 19:02:21:470
9.802,0.146,0.117,0,0,0,13226,2021-01-15 19:02:21:479
9.802,0.146,0.117,0,0,0,13235,2021-01-15 19:02:21:488
9.833,0.139,0.136,0,0,0,13246,2021-01-15 19:02:21:499
9.833,0.139,0.136,0,0,0,13256,2021-01-15 19:02:21:509
9.833,0.139,0.136,0,0,0,13265,2021-01-15 19:02:21:518
9.833,0.139,0.136,0,0,0,13276,2021-01-15 19:02:21:529
9.833,0.139,0.136,0,0,0,13286,2021-01-15 19:02:21:539
9.833,0.139,0.136,0,0,0,13296,2021-01-15 19:02:21:549
9.824,0.153,0.141,0,0,0,13306,2021-01-15 19:02:21:559
9.824,0.153,0.141,0,0,0,13316,2021-01-15 19:02:21:569
9.824,0.153,0.141,0,0,0,13328,2021-01-15 19:02:21:581
9.824,0.153,0.141,0,0,0,13336,2021-01-15 19:02:21:589
9.824,0.153,0.141,0,0,0,13346,2021-01-15 19:02:21:599
9.824,0.153,0.141,0,0,0,13355,2021-01-15 19:02:21:608
9.817,0.144,0.127,0,0,0,13366,2021-01-15 19:02:21:619
9.817,0.144,0.127,0,0,0,13377,2021-01-15 19:02:21:630
9.817,0.144,0.127,0,0,0,13386,2021-01-15 19:02:21:639
9.817,0.144,0.127,0,0,0,13398,2021-01-15 19:02:21:651
9.817,0.144,0.127,0,0,0,13411,2021-01-15 19:02:21:664
9.817,0.144,0.127,0,0,0,13416,2021-01-15 19:02:21:669
9.824,0.122,0.132,0,0,0,13428,2021-01-15 19:02:21:681
9.824,0.122,0.132,0,0,0,13436,2021-01-15 19:02:21:689
9.824,0.122,0.132,0,0,0,13446,2021-01-15 19:02:21:699
9.824,0.122,0.132,0,0,0,13455,2021-01-15 19:02:21:708
9.824,0.122,0.132,0,0,0,13466,2021-01-15 19:02:21:719
9.824,0.122,0.132,0,0,0,13476,2021-01-15 19:02:21:729
9.79,0.136,0.134,0,0,0,13488,2021-01-15 19:02:21:741
9.79,0.136,0.134,0,0,0,13495,2021-01-15 19:02:21:748
9.79,0.136,0.134,0,0,0,13505,2021-01-15 19:02:21:758
9.79,0.136,0.134,0,0,0,13515,2021-01-15 19:02:21:768
9.79,0.136,0.134,0,0,0,13527,2021-01-15 19:02:21:780
9.79,0.136,0.134,0,0,0,13536,2021-01-15 19:02:21:789
9.8,0.115,0.158,0,0,0,13551,2021-01-15 19:02:21:804
9.8,0.115,0.158,0,0,0,13555,2021-01-15 19:02:21:808
9.8,0.115,0.158,0,0,0,13566,2021-01-15 19:02:21:819
9.8,0.115,0.158,0,0,0,13576,2021-01-15 19:02:21:829
9.8,0.115,0.158,0,0,0,13587,2021-01-15 19:02:21:840
9.8,0.115,0.158,0,0,0,13595,2021-01-15 19:02:21:848
9.809,0.108,0.148,0,0,0,13606,2021-01-15 19:02:21:859
9.809,0.108,0.148,0,0,0,13616,2021-01-15 19:02:21:869
9.809,0.108,0.148,0,0,0,13626,2021-01-15 19:02:21:879
9.809,0.108,0.148,0,0,0,13635,2021-01-15 19:02:21:888
9.809,0.108,0.148,0,0,0,13650,2021-01-15 19:02:21:903
9.809,0.108,0.148,0,0,0,13655,2021-01-15 19:02:21:908
9.805,0.132,0.141,0,0,0,13667,2021-01-15 19:02:21:920
9.805,0.132,0.141,0,0,0,13675,2021-01-15 19:02:21:928
9.805,0.132,0.141,0,0,0,13685,2021-01-15 19:02:21:938
9.805,0.132,0.141,0,0,0,13696,2021-01-15 19:02:21:949
9.805,0.132,0.141,0,0,0,13706,2021-01-15 19:02:21:959
9.805,0.132,0.141,0,0,0,13715,2021-01-15 19:02:21:968
9.814,0.125,0.134,0,0,0,13726,2021-01-15 19:02:21:979
9.814,0.125,0.134,0,0,0,13735,2021-01-15 19:02:21:988
9.814,0.125,0.134,0,0,0,13746,2021-01-15 19:02:21:999
9.814,0.125,0.134,0,0,0,13755,2021-01-15 19:02:22:008
9.814,0.125,0.134,0,0,0,13766,2021-01-15 19:02:22:019
9.814,0.125,0.134,0,0,0,13775,2021-01-15 19:02:22:028
9.821,0.129,0.144,0,0,0,13785,2021-01-15 19:02:22:038
9.821,0.129,0.144,0,0,0,13795,2021-01-15 19:02:22:048
9.821,0.129,0.144,0,0,0,13805,2021-01-15 19:02:22:058
9.821,0.129,0.144,0,0,0,13816,2021-01-15 19:02:22:069
9.821,0.129,0.144,0,0,0,13828,2021-01-15 19:02:22:081
9.821,0.129,0.144,0,0,0,13836,2021-01-15 19:02:22:089
9.797,0.139,0.129,0,0,0,13854,2021-01-15 19:02:22:107
9.797,0.139,0.129,0,0,0,13858,2021-01-15 19:02:22:111
9.797,0.139,0.129,0,0,0,13866,2021-01-15 19:02:22:119
9.797,0.139,0.129,0,0,0,13878,2021-01-15 19:02:22:131
9.797,0.139,0.129,0,0,0,13886,2021-01-15 19:02:22:139
9.797,0.139,0.129,0,0,0,13896,2021-01-15 19:02:22:149
9.807,0.148,0.127,0,0,0,13906,2021-01-15 19:02:22:159
9.807,0.148,0.127,0,0,0,13915,2021-01-15 19:02:22:168
9.807,0.148,0.127,0,0,0,13926,2021-01-15 19:02:22:179
9.807,0.148,0.127,0,0,0,13935,2021-01-15 19:02:22:188
9.807,0.148,0.127,0,0,0,13946,2021-01-15 19:02:22:199
9.807,0.148,0.127,0,0,0,13956,2021-01-15 19:02:22:209
9.812,0.141,0.132,0,0,0,13969,2021-01-15 19:02:22:222
9.812,0.141,0.132,0,0,0,13976,2021-01-15 19:02:22:229
9.812,0.141,0.132,0,0,0,13986,2021-01-15 19:02:22:239
9.812,0.141,0.132,0,0,0,13996,2021-01-15 19:02:22:249
9.812,0.141,0.132,0,0,0,14006,2021-01-15 19:02:22:259
9.812,0.141,0.132,0,0,0,14018,2021-01-15 19:02:22:271
9.807,0.125,0.117,0,0,0,14033,2021-01-15 19:02:22:286
9.807,0.125,0.117,0,0,0,14035,2021-01-15 19:02:22:288
9.807,0.125,0.117,0,0,0,14046,2021-01-15 19:02:22:299
9.807,0.125,0.117,0,0,0,14056,2021-01-15 19:02:22:309
9.807,0.125,0.117,0,0,0,14066,2021-01-15 19:02:22:319
9.807,0.125,0.117,0,0,0,14076,2021-01-15 19:02:22:329
9.809,0.134,0.134,0,0,0,14085,2021-01-15 19:02:22:338
9.809,0.134,0.134,0,0,0,14097,2021-01-15 19:02:22:350
9.809,0.134,0.134,0,0,0,14106,2021-01-15 19:02:22:359
9.809,0.134,0.134,0,0,0,14116,2021-01-15 19:02:22:369
9.809,0.134,0.134,0,0,0,14126,2021-01-15 19:02:22:379
9.809,0.134,0.134,0,0,0,14137,2021-01-15 19:02:22:390
9.812,0.125,0.122,0,0,0,14145,2021-01-15 19:02:22:398
9.812,0.125,0.122,0,0,0,14156,2021-01-15 19:02:22:409
9.812,0.125,0.122,0,0,0,14166,2021-01-15 19:02:22:419
9.812,0.125,0.122,0,0,0,14176,2021-01-15 19:02:22:429
9.812,0.125,0.122,0,0,0,14186,2021-01-15 19:02:22:439
9.812,0.125,0.122,0,0,0,14195,2021-01-15 19:02:22:448
9.8,0.129,0.115,0,0,0,14205,2021-01-15 19:02:22:458
9.8,0.129,0.115,0,0,0,14216,2021-01-15 19:02:22:469
9.8,0.129,0.115,0,0,0,14226,2021-01-15 19:02:22:479
9.8,0.129,0.115,0,0,0,14236,2021-01-15 19:02:22:489
9.8,0.129,0.115,0,0,0,14247,2021-01-15 19:02:22:500
9.8,0.129,0.115,0,0,0,14256,2021-01-15 19:02:22:509
9.8,0.129,0.115,0,0,0,14266,2021-01-15 19:02:22:519
9.807,0.134,0.122,0,0,0,14276,2021-01-15 19:02:22:529
9.807,0.134,0.122,0,0,0,14285,2021-01-15 19:02:22:538
9.807,0.134,0.122,0,0,0,14295,2021-01-15 19:02:22:548
9.807,0.134,0.122,0,0,0,14306,2021-01-15 19:02:22:559
9.807,0.134,0.122,0,0,0,14316,2021-01-15 19:02:22:569
9.807,0.134,0.122,0,0,0,14326,2021-01-15 19:02:22:579
9.807,0.134,0.122,0,0,0,14335,2021-01-15 19:02:22:588
9.805,0.144,0.108,0,0,0,14347,2021-01-15 19:02:22:600
9.805,0.144,0.108,0,0,0,14356,2021-01-15 19:02:22:609
9.805,0.144,0.108,0,0,0,14366,2021-01-15 19:02:22:619
9.805,0.144,0.108,0,0,0,14375,2021-01-15 19:02:22:628
9.805,0.144,0.108,0,0,0,14386,2021-01-15 19:02:22:639
9.805,0.144,0.108,0,0,0,14396,2021-01-15 19:02:22:649
9.826,0.129,0.117,0,0,0,14406,2021-01-15 19:02:22:659
9.826,0.129,0.117,0,0,0,14416,2021-01-15 19:02:22:669
9.826,0.129,0.117,0,0,0,14425,2021-01-15 19:02:22:678
9.826,0.129,0.117,0,0,0,14439,2021-01-15 19:02:22:692
9.826,0.129,0.117,0,0,0,14446,2021-01-15 19:02:22:699
9.826,0.129,0.117,0,0,0,14456,2021-01-15 19:02:22:709
9.817,0.129,0.127,0,0,0,14466,2021-01-15 19:02:22:719
9.817,0.129,0.127,0,0,0,14475,2021-01-15 19:02:22:728
9.817,0.129,0.127,0.001,0,0,14485,2021-01-15 19:02:22:738
9.817,0.129,0.127,0.001,0,0,14498,2021-01-15 19:02:22:751
9.817,0.129,0.127,0.001,0,0,14505,2021-01-15 19:02:22:758
9.817,0.129,0.127,0.001,0,0,14516,2021-01-15 19:02:22:769
9.807,0.132,0.105,0.001,0,0,14526,2021-01-15 19:02:22:779
9.807,0.132,0.105,0.001,0,0,14536,2021-01-15 19:02:22:789
9.807,0.132,0.105,0.001,0,0,14546,2021-01-15 19:02:22:799
9.807,0.132,0.105,0.001,0,0,14556,2021-01-15 19:02:22:809
9.807,0.132,0.105,0.001,0,0,14566,2021-01-15 19:02:22:819
9.807,0.132,0.105,0.001,0,0,14575,2021-01-15 19:02:22:828
9.814,0.132,0.093,0.001,0,0,14586,2021-01-15 19:02:22:839
9.814,0.132,0.093,0.001,0,0,14597,2021-01-15 19:02:22:850
9.814,0.132,0.093,0,0,0,14609,2021-01-15 19:02:22:862
9.814,0.132,0.093,0,0,0,14618,2021-01-15 19:02:22:871
9.814,0.132,0.093,0,0,0,14625,2021-01-15 19:02:22:878
9.814,0.132,0.093,0,0,0,14636,2021-01-15 19:02:22:889
9.807,0.127,0.098,0,0,0,14646,2021-01-15 19:02:22:899
9.807,0.127,0.098,0,0,0,14656,2021-01-15 19:02:22:909
9.807,0.127,0.098,0,0,0,14666,2021-01-15 19:02:22:919
9.807,0.127,0.098,0,0,0,14676,2021-01-15 19:02:22:929
9.807,0.127,0.098,0,0,0,14685,2021-01-15 19:02:22:938
9.807,0.127,0.098,0,0,0,14696,2021-01-15 19:02:22:949
9.785,0.153,0.105,0,0,0,14705,2021-01-15 19:02:22:958
9.785,0.153,0.105,0,0,0,14716,2021-01-15 19:02:22:969
9.785,0.153,0.105,0,0,0,14728,2021-01-15 19:02:22:981
9.785,0.153,0.105,0,0,0,14736,2021-01-15 19:02:22:989
9.785,0.153,0.105,0,0,0,14760,2021-01-15 19:02:23:013
9.785,0.153,0.105,0,0,0,14761,2021-01-15 19:02:23:014
9.814,0.136,0.096,0,0,0,14766,2021-01-15 19:02:23:019
9.814,0.136,0.096,0,0,0,14776,2021-01-15 19:02:23:029
9.814,0.136,0.096,0,0,0,14787,2021-01-15 19:02:23:040
9.814,0.136,0.096,0,0,0,14795,2021-01-15 19:02:23:048
9.814,0.136,0.096,0,0,0,14806,2021-01-15 19:02:23:059
9.814,0.136,0.096,0,0,0,14816,2021-01-15 19:02:23:069
9.8,0.134,0.101,0,0,0,14826,2021-01-15 19:02:23:079
9.8,0.134,0.101,0,0,0,14839,2021-01-15 19:02:23:092
9.8,0.134,0.101,0.001,0,0,14845,2021-01-15 19:02:23:098
9.8,0.134,0.101,0.001,0,0,14869,2021-01-15 19:02:23:122
9.8,0.134,0.101,0.001,0,0,14870,2021-01-15 19:02:23:123
9.8,0.134,0.101,0.001,0,0,14875,2021-01-15 19:02:23:128
9.812,0.148,0.093,0.001,0,0,14885,2021-01-15 19:02:23:138
9.812,0.148,0.093,0.001,0,0,14895,2021-01-15 19:02:23:148
9.812,0.148,0.093,0.001,0,0,14906,2021-01-15 19:02:23:159
9.812,0.148,0.093,0.001,0,0,14916,2021-01-15 19:02:23:169
9.812,0.148,0.093,0.001,0,0,14926,2021-01-15 19:02:23:179
9.812,0.148,0.093,0.001,0,0,14936,2021-01-15 19:02:23:189
9.814,0.141,0.101,0.001,0,0,14946,2021-01-15 19:02:23:199
9.814,0.141,0.101,0.001,0,0,14956,2021-01-15 19:02:23:209
9.814,0.141,0.101,0.001,0,0,14965,2021-01-15 19:02:23:218
9.814,0.141,0.101,0,0,0,14976,2021-01-15 19:02:23:229
9.814,0.141,0.101,0,0,0,14986,2021-01-15 19:02:23:239
9.814,0.141,0.101,0,0,0,14996,2021-01-15 19:02:23:249
9.809,0.146,0.089,0,0,0,15006,2021-01-15 19:02:23:259
9.809,0.146,0.089,0,0,0,15015,2021-01-15 19:02:23:268
9.809,0.146,0.089,0,0,0,15026,2021-01-15 19:02:23:279
9.809,0.146,0.089,0,0,0,15037,2021-01-15 19:02:23:290
9.809,0.146,0.089,0,0,0,15046,2021-01-15 19:02:23:299
9.809,0.146,0.089,0,0,0,15056,2021-01-15 19:02:23:309
9.817,0.122,0.091,0,0,0,15068,2021-01-15 19:02:23:321
9.817,0.122,0.091,0,0,0,15075,2021-01-15 19:02:23:328
9.817,0.122,0.091,0,0,0,15086,2021-01-15 19:02:23:339
9.817,0.122,0.091,0,0,0,15096,2021-01-15 19:02:23:349
9.817,0.122,0.091,0,0,0,15105,2021-01-15 19:02:23:358
9.817,0.122,0.091,0,0,0,15115,2021-01-15 19:02:23:368
9.807,0.168,0.11,0,0,0,15125,2021-01-15 19:02:23:378
9.807,0.168,0.11,0,0,0,15135,2021-01-15 19:02:23:388
9.807,0.168,0.11,0,0,0,15146,2021-01-15 19:02:23:399
9.807,0.168,0.11,0,0,0,15156,2021-01-15 19:02:23:409
9.807,0.168,0.11,0,0,0,15166,2021-01-15 19:02:23:419
9.807,0.168,0.11,0,0,0,15175,2021-01-15 19:02:23:428
9.8,0.141,0.079,0,0,0,15185,2021-01-15 19:02:23:438
9.8,0.141,0.079,0,0,0,15196,2021-01-15 19:02:23:449
9.8,0.141,0.079,0,0,0,15206,2021-01-15 19:02:23:459
9.8,0.141,0.079,0,0,0,15215,2021-01-15 19:02:23:468
9.8,0.141,0.079,0,0,0,15226,2021-01-15 19:02:23:479
9.8,0.141,0.079,0,0,0,15236,2021-01-15 19:02:23:489
9.812,0.139,0.108,0,0,0,15252,2021-01-15 19:02:23:505
9.812,0.139,0.108,0,0,0,15255,2021-01-15 19:02:23:508
9.812,0.139,0.108,0,0,0,15267,2021-01-15 19:02:23:520
9.812,0.139,0.108,0,0,0,15276,2021-01-15 19:02:23:529
9.812,0.139,0.108,0,0,0,15286,2021-01-15 19:02:23:539
9.812,0.139,0.108,0,0,0,15296,2021-01-15 19:02:23:549
9.805,0.139,0.093,0,0,0,15306,2021-01-15 19:02:23:559
9.805,0.139,0.093,0,0,0,15316,2021-01-15 19:02:23:569
9.805,0.139,0.093,0,0,0,15328,2021-01-15 19:02:23:581
9.805,0.139,0.093,0,0,0,15335,2021-01-15 19:02:23:588
9.805,0.139,0.093,0,0,0,15346,2021-01-15 19:02:23:599
9.805,0.139,0.093,0,0,0,15356,2021-01-15 19:02:23:609
9.809,0.148,0.098,0,0,0,15366,2021-01-15 19:02:23:619
9.809,0.148,0.098,0,0,0,15376,2021-01-15 19:02:23:629
9.809,0.148,0.098,0,0,0,15386,2021-01-15 19:02:23:639
9.809,0.148,0.098,0,0,0,15395,2021-01-15 19:02:23:648
9.809,0.148,0.098,0,0,0,15405,2021-01-15 19:02:23:658
9.809,0.148,0.098,0,0,0,15416,2021-01-15 19:02:23:669
9.805,0.136,0.086,0,0,0,15426,2021-01-15 19:02:23:679
9.805,0.136,0.086,0,0,0,15436,2021-01-15 19:02:23:689
9.805,0.136,0.086,0,0,0,15446,2021-01-15 19:02:23:699
9.805,0.136,0.086,0,0,0,15456,2021-01-15 19:02:23:709
9.805,0.136,0.086,0,0,0,15466,2021-01-15 19:02:23:719
9.805,0.136,0.086,0,0,0,15475,2021-01-15 19:02:23:728
9.797,0.132,0.081,0,0,0,15486,2021-01-15 19:02:23:739
9.797,0.132,0.081,0,0,0,15496,2021-01-15 19:02:23:749
9.797,0.132,0.081,0,0,0,15506,2021-01-15 19:02:23:759
9.797,0.132,0.081,0,0,0,15516,2021-01-15 19:02:23:769
9.797,0.132,0.081,0,0,0,15525,2021-01-15 19:02:23:778
9.797,0.132,0.081,0,0,0,15535,2021-01-15 19:02:23:788
9.8,0.136,0.093,0,0,0,15545,2021-01-15 19:02:23:798
9.8,0.136,0.093,0,0,0,15556,2021-01-15 19:02:23:809
9.8,0.136,0.093,-0.001,0,0,15567,2021-01-15 19:02:23:820
9.8,0.136,0.093,-0.001,0,0,15575,2021-01-15 19:02:23:828
9.8,0.136,0.093,-0.001,0,0,15586,2021-01-15 19:02:23:839
9.8,0.136,0.093,-0.001,0,0,15595,2021-01-15 19:02:23:848
9.807,0.127,0.079,-0.001,0,0,15609,2021-01-15 19:02:23:862
9.807,0.127,0.079,-0.001,0,0,15616,2021-01-15 19:02:23:869
9.807,0.127,0.079,-0.001,0,0,15626,2021-01-15 19:02:23:879
9.807,0.127,0.079,-0.001,0,0,15636,2021-01-15 19:02:23:889
9.807,0.127,0.079,-0.001,0,0,15646,2021-01-15 19:02:23:899
9.807,0.127,0.079,-0.001,0,0,15656,2021-01-15 19:02:23:909
9.821,0.141,0.108,-0.001,0,0,15666,2021-01-15 19:02:23:919
9.821,0.141,0.108,-0.001,0,0,15675,2021-01-15 19:02:23:928
9.821,0.141,0.108,-0.001,0,0,15685,2021-01-15 19:02:23:938
9.821,0.141,0.108,0,0,0,15695,2021-01-15 19:02:23:948
9.821,0.141,0.108,0,0,0,15705,2021-01-15 19:02:23:958
9.821,0.141,0.108,0,0,0,15717,2021-01-15 19:02:23:970
9.809,0.129,0.089,0,0,0,15726,2021-01-15 19:02:23:979
9.809,0.129,0.089,0,0,0,15737,2021-01-15 19:02:23:990
9.809,0.129,0.089,0,0,0,15746,2021-01-15 19:02:23:999
9.809,0.129,0.089,0,0,0,15760,2021-01-15 19:02:24:013
9.809,0.129,0.089,0,0,0,15766,2021-01-15 19:02:24:019
9.809,0.129,0.089,0,0,0,15777,2021-01-15 19:02:24:030
9.819,0.148,0.098,0,0,0,15786,2021-01-15 19:02:24:039
9.819,0.148,0.098,0,0,0,15796,2021-01-15 19:02:24:049
9.819,0.148,0.098,0,0,0,15806,2021-01-15 19:02:24:059
9.819,0.148,0.098,0,0,0,15816,2021-01-15 19:02:24:069
9.819,0.148,0.098,0,0,0,15826,2021-01-15 19:02:24:079
9.819,0.148,0.098,0,0,0,15835,2021-01-15 19:02:24:088
9.807,0.127,0.084,0,0,0,15845,2021-01-15 19:02:24:098
9.807,0.127,0.084,0,0,0,15855,2021-01-15 19:02:24:108
9.807,0.127,0.084,0,0,0,15865,2021-01-15 19:02:24:118
9.807,0.127,0.084,0,0,0,15876,2021-01-15 19:02:24:129
9.807,0.127,0.084,0,0,0,15886,2021-01-15 19:02:24:139
9.807,0.127,0.084,0,0,0,15896,2021-01-15 19:02:24:149
9.805,0.129,0.093,0,0,0,15906,2021-01-15 19:02:24:159
9.805,0.129,0.093,0,0,0,15915,2021-01-15 19:02:24:168
9.805,0.129,0.093,0,0,0,15926,2021-01-15 19:02:24:179
9.805,0.129,0.093,0,0,0,15936,2021-01-15 19:02:24:189
9.805,0.129,0.093,0,0,0,15948,2021-01-15 19:02:24:201
9.805,0.129,0.093,0,0,0,15955,2021-01-15 19:02:24:208
9.809,0.12,0.093,0,0,0,15966,2021-01-15 19:02:24:219
9.809,0.12,0.093,0,0,0,15975,2021-01-15 19:02:24:228
9.809,0.12,0.093,0,0,0,15985,2021-01-15 19:02:24:238
9.809,0.12,0.093,0,0,0,15997,2021-01-15 19:02:24:250
9.809,0.12,0.093,0,0,0,16006,2021-01-15 19:02:24:259
9.809,0.12,0.093,0,0,0,16016,2021-01-15 19:02:24:269
9.812,0.148,0.101,0,0,0,16025,2021-01-15 19:02:24:278
9.812,0.148,0.101,0,0,0,16036,2021-01-15 19:02:24:289
9.812,0.148,0.101,0,0,0,16046,2021-01-15 19:02:24:299
9.812,0.148,0.101,0,0,0,16055,2021-01-15 19:02:24:308
9.812,0.148,0.101,0,0,0,16066,2021-01-15 19:02:24:319
9.812,0.148,0.101,0,0,0,16075,2021-01-15 19:02:24:328
9.805,0.136,0.081,0,0,0,16086,2021-01-15 19:02:24:339
9.805,0.136,0.081,0,0,0,16095,2021-01-15 19:02:24:348
9.805,0.136,0.081,0,0,0,16105,2021-01-15 19:02:24:358
9.805,0.136,0.081,0,0,0,16116,2021-01-15 19:02:24:369
9.805,0.136,0.081,0,0,0,16126,2021-01-15 19:02:24:379
9.805,0.136,0.081,0,0,0,16136,2021-01-15 19:02:24:389
9.805,0.136,0.081,0,0,0,16146,2021-01-15 19:02:24:399
9.805,0.136,0.081,0,0,0,16159,2021-01-15 19:02:24:412
9.805,0.136,0.081,0,0,0,16166,2021-01-15 19:02:24:419
9.805,0.136,0.081,0,0,0,16175,2021-01-15 19:02:24:428
9.805,0.136,0.081,0,0,0,16185,2021-01-15 19:02:24:438
9.805,0.136,0.081,0,0,0,16195,2021-01-15 19:02:24:448
9.805,0.136,0.081,0,0,0,16205,2021-01-15 19:02:24:458
9.805,0.136,0.081,0,0,0,16215,2021-01-15 19:02:24:468
9.805,0.136,0.081,0,0,0,16225,2021-01-15 19:02:24:478
9.805,0.136,0.081,0,0,0,16235,2021-01-15 19:02:24:488
9.805,0.136,0.081,0,0,0,16246,2021-01-15 19:02:24:499
9.805,0.136,0.081,0,0,0,16256,2021-01-15 19:02:24:509
9.805,0.136,0.081,0,0,0,16265,2021-01-15 19:02:24:518
9.814,0.148,0.101,0,0,0,16276,2021-01-15 19:02:24:529
9.814,0.148,0.101,0,0,0,16285,2021-01-15 19:02:24:538
9.814,0.148,0.101,0,0,0,16296,2021-01-15 19:02:24:549
9.814,0.148,0.101,0,0,0,16306,2021-01-15 19:02:24:559
9.814,0.148,0.101,0,0,0,16315,2021-01-15 19:02:24:568
9.805,0.129,0.11,0,0,0,16326,2021-01-15 19:02:24:579
9.805,0.129,0.11,0,0,0,16336,2021-01-15 19:02:24:589
9.805,0.129,0.11,0,0,0,16346,2021-01-15 19:02:24:599
9.805,0.129,0.11,0,0,0,16356,2021-01-15 19:02:24:609
9.805,0.129,0.11,0,0,0,16366,2021-01-15 19:02:24:619
9.805,0.129,0.11,0,0,0,16376,2021-01-15 19:02:24:629
9.805,0.129,0.105,0,0,0,16386,2021-01-15 19:02:24:639
9.805,0.129,0.105,0,0,0,16396,2021-01-15 19:02:24:649
9.805,0.129,0.105,0,0,0,16405,2021-01-15 19:02:24:658
9.805,0.129,0.105,0,0,0,16416,2021-01-15 19:02:24:669
9.805,0.129,0.105,0,0,0,16426,2021-01-15 19:02:24:679
9.805,0.129,0.105,0,0,0,16435,2021-01-15 19:02:24:688
9.819,0.148,0.117,0,0,0,16445,2021-01-15 19:02:24:698
9.819,0.148,0.117,0,0,0,16456,2021-01-15 19:02:24:709
9.819,0.148,0.117,0,0,0,16467,2021-01-15 19:02:24:720
9.819,0.148,0.117,0,0,0,16475,2021-01-15 19:02:24:728
9.819,0.148,0.117,0,0,0,16486,2021-01-15 19:02:24:739
9.819,0.148,0.117,0,0,0,16495,2021-01-15 19:02:24:748
9.826,0.117,0.11,0,0,0,16505,2021-01-15 19:02:24:758
9.826,0.117,0.11,0,0,0,16516,2021-01-15 19:02:24:769
9.826,0.117,0.11,0,0,0,16526,2021-01-15 19:02:24:779
9.826,0.117,0.11,0,0,0,16536,2021-01-15 19:02:24:789
9.826,0.117,0.11,0,0,0,16546,2021-01-15 19:02:24:799
9.826,0.117,0.11,0,0,0,16555,2021-01-15 19:02:24:808
9.809,0.127,0.113,0,0,0,16565,2021-01-15 19:02:24:818
9.809,0.127,0.113,0,0,0,16575,2021-01-15 19:02:24:828
9.809,0.127,0.113,0,0,0,16585,2021-01-15 19:02:24:838
9.809,0.127,0.113,0,0,0,16596,2021-01-15 19:02:24:849
9.809,0.127,0.113,0,0,0,16605,2021-01-15 19:02:24:858
9.809,0.127,0.113,0,0,0,16616,2021-01-15 19:02:24:869
9.817,0.148,0.12,0,0,0,16626,2021-01-15 19:02:24:879
9.817,0.148,0.12,0,0,0,16636,2021-01-15 19:02:24:889
9.817,0.148,0.12,0,0,0,16646,2021-01-15 19:02:24:899
9.817,0.148,0.12,0,0,0,16655,2021-01-15 19:02:24:908
9.817,0.148,0.12,0,0,0,16665,2021-01-15 19:02:24:918
9.817,0.148,0.12,0,0,0,16675,2021-01-15 19:02:24:928
9.802,0.132,0.11,0,0,0,16686,2021-01-15 19:02:24:939
9.802,0.132,0.11,0,0,0,16696,2021-01-15 19:02:24:949
9.802,0.132,0.11,0,0,0,16706,2021-01-15 19:02:24:959
9.802,0.132,0.11,0,0,0,16716,2021-01-15 19:02:24:969
9.802,0.132,0.11,0,0,0,16725,2021-01-15 19:02:24:978
9.802,0.132,0.11,0,0,0,16736,2021-01-15 19:02:24:989
9.814,0.141,0.105,0,0,0,16746,2021-01-15 19:02:24:999
9.814,0.141,0.105,0,0,0,16755,2021-01-15 19:02:25:008
9.814,0.141,0.105,0,0,0,16765,2021-01-15 19:02:25:018
9.814,0.141,0.105,0,0,0,16776,2021-01-15 19:02:25:029
9.814,0.141,0.105,0,0,0,16789,2021-01-15 19:02:25:042
9.814,0.141,0.105,0,0,0,16796,2021-01-15 19:02:25:049
9.817,0.139,0.105,0,0,0,16806,2021-01-15 19:02:25:059
9.817,0.139,0.105,0,0,0,16815,2021-01-15 19:02:25:068
9.817,0.139,0.105,0.001,0,0,16831,2021-01-15 19:02:25:084
9.817,0.139,0.105,0.001,0,0,16836,2021-01-15 19:02:25:089
9.817,0.139,0.105,0.001,0,0,16845,2021-01-15 19:02:25:098
9.817,0.139,0.105,0.001,0,0,16855,2021-01-15 19:02:25:108
9.809,0.134,0.101,0.001,0,0,16865,2021-01-15 19:02:25:118
9.809,0.134,0.101,0.001,0,0,16875,2021-01-15 19:02:25:128
9.809,0.134,0.101,0.001,0,0,16892,2021-01-15 19:02:25:145
9.809,0.134,0.101,0.001,0,0,16896,2021-01-15 19:02:25:149
9.809,0.134,0.101,0.001,0,0,16905,2021-01-15 19:02:25:158
9.809,0.134,0.101,0.001,0,0,16916,2021-01-15 19:02:25:169
9.826,0.134,0.12,0.001,0,0,16926,2021-01-15 19:02:25:179
9.826,0.134,0.12,0.001,0,0,16935,2021-01-15 19:02:25:188
9.826,0.134,0.12,0,0,0,16946,2021-01-15 19:02:25:199
9.826,0.134,0.12,0,0,0,16956,2021-01-15 19:02:25:209
9.826,0.134,0.12,0,0,0,16966,2021-01-15 19:02:25:219
9.826,0.134,0.12,0,0,0,16975,2021-01-15 19:02:25:228
9.807,0.127,0.101,0,0,0,16988,2021-01-15 19:02:25:241
9.807,0.127,0.101,0,0,0,16995,2021-01-15 19:02:25:248
9.807,0.127,0.101,0,0,0,17005,2021-01-15 19:02:25:258
9.807,0.127,0.101,0,0,0,17016,2021-01-15 19:02:25:269
9.807,0.127,0.101,0,0,0,17026,2021-01-15 19:02:25:279
9.807,0.127,0.101,0,0,0,17037,2021-01-15 19:02:25:290
9.805,0.134,0.115,0,0,0,17046,2021-01-15 19:02:25:299
9.805,0.134,0.115,0,0,0,17056,2021-01-15 19:02:25:309
9.805,0.134,0.115,0.001,0,0,17065,2021-01-15 19:02:25:318
9.805,0.134,0.115,0.001,0,0,17076,2021-01-15 19:02:25:329
9.805,0.134,0.115,0.001,0,0,17086,2021-01-15 19:02:25:339
9.805,0.134,0.115,0.001,0,0,17095,2021-01-15 19:02:25:348
9.802,0.136,0.098,0.001,0,0,17105,2021-01-15 19:02:25:358
9.802,0.136,0.098,0.001,0,0,17115,2021-01-15 19:02:25:368
9.802,0.136,0.098,0.001,0,0,17125,2021-01-15 19:02:25:378
9.802,0.136,0.098,0.001,0,0,17136,2021-01-15 19:02:25:389
9.802,0.136,0.098,0.001,0,0,17146,2021-01-15 19:02:25:399
9.802,0.136,0.098,0.001,0,0,17156,2021-01-15 19:02:25:409
9.805,0.12,0.117,0.001,0,0,17166,2021-01-15 19:02:25:419
9.805,0.12,0.117,0.001,0,0,17176,2021-01-15 19:02:25:429
9.805,0.12,0.117,0,0,0,17186,2021-01-15 19:02:25:439
9.805,0.12,0.117,0,0,0,17197,2021-01-15 19:02:25:450
9.805,0.12,0.117,0,0,0,17206,2021-01-15 19:02:25:459
9.805,0.12,0.117,0,0,0,17216,2021-01-15 19:02:25:469
9.797,0.122,0.105,0,0,0,17225,2021-01-15 19:02:25:478
9.797,0.122,0.105,0,0,0,17237,2021-01-15 19:02:25:490
9.797,0.122,0.105,0,0,0,17246,2021-01-15 19:02:25:499
9.797,0.122,0.105,0,0,0,17257,2021-01-15 19:02:25:510
9.797,0.122,0.105,0,0,0,17265,2021-01-15 19:02:25:518
9.797,0.122,0.105,0,0,0,17276,2021-01-15 19:02:25:529
9.824,0.122,0.11,0,0,0,17287,2021-01-15 19:02:25:540
9.824,0.122,0.11,0,0,0,17296,2021-01-15 19:02:25:549
9.824,0.122,0.11,-0.001,0,0,17306,2021-01-15 19:02:25:559
9.824,0.122,0.11,-0.001,0,0,17315,2021-01-15 19:02:25:568
9.824,0.122,0.11,-0.001,0,0,17325,2021-01-15 19:02:25:578
9.824,0.122,0.11,-0.001,0,0,17336,2021-01-15 19:02:25:589
9.824,0.122,0.11,-0.001,0,0,17345,2021-01-15 19:02:25:598
9.824,0.122,0.11,-0.001,0,0,17356,2021-01-15 19:02:25:609
9.824,0.122,0.11,-0.001,0,0,17365,2021-01-15 19:02:25:618
9.824,0.122,0.11,-0.001,0,0,17375,2021-01-15 19:02:25:628
9.824,0.122,0.11,-0.001,0,0,17386,2021-01-15 19:02:25:639
9.824,0.122,0.11,-0.001,0,0,17395,2021-01-15 19:02:25:648
9.824,0.122,0.11,-0.001,0,0,17407,2021-01-15 19:02:25:660
9.824,0.122,0.11,-0.001,0,0,17416,2021-01-15 19:02:25:669
9.824,0.122,0.11,-0.001,0,0,17425,2021-01-15 19:02:25:678
9.824,0.122,0.11,-0.001,0,0,17436,2021-01-15 19:02:25:689
9.817,0.146,0.101,0,0,0,17446,2021-01-15 19:02:25:699
9.817,0.146,0.101,0,0,0,17457,2021-01-15 19:02:25:710
9.817,0.146,0.101,0,0,0,17466,2021-01-15 19:02:25:719
9.817,0.146,0.101,0,0,0,17476,2021-01-15 19:02:25:729
9.817,0.146,0.101,0,0,0,17486,2021-01-15 19:02:25:739
9.817,0.146,0.101,0,0,0,17495,2021-01-15 19:02:25:748
9.805,0.153,0.096,0,0,0,17506,2021-01-15 19:02:25:759
9.805,0.153,0.096,0,0,0,17516,2021-01-15 19:02:25:769
9.805,0.153,0.096,0,0,0,17527,2021-01-15 19:02:25:780
9.805,0.153,0.096,0,0,0,17535,2021-01-15 19:02:25:788
9.805,0.153,0.096,0,0,0,17546,2021-01-15 19:02:25:799
9.805,0.153,0.096,0.001,0,0,17556,2021-01-15 19:02:25:809
9.84,0.134,0.096,0.001,0,0,17567,2021-01-15 19:02:25:820
9.84,0.134,0.096,0.001,0,0,17575,2021-01-15 19:02:25:828
9.84,0.134,0.096,0.001,0,0,17586,2021-01-15 19:02:25:839
9.84,0.134,0.096,0.001,0,0,17596,2021-01-15 19:02:25:849
9.84,0.134,0.096,0.001,0,0,17606,2021-01-15 19:02:25:859
9.84,0.134,0.096,0.001,0,0,17617,2021-01-15 19:02:25:870
9.819,0.144,0.077,0.001,0,0,17625,2021-01-15 19:02:25:878
9.819,0.144,0.077,0.001,0,0,17636,2021-01-15 19:02:25:889
9.819,0.144,0.077,0.001,0,0,17646,2021-01-15 19:02:25:899
9.819,0.144,0.077,0.001,0,0,17655,2021-01-15 19:02:25:908
9.819,0.144,0.077,0.001,0,0,17666,2021-01-15 19:02:25:919
9.819,0.144,0.077,0.001,0,0,17675,2021-01-15 19:02:25:928
9.817,0.153,0.096,0.001,0,0,17685,2021-01-15 19:02:25:938
9.817,0.153,0.096,0.001,0,0,17696,2021-01-15 19:02:25:949
9.817,0.153,0.096,0.001,0,0,17706,2021-01-15 19:02:25:959
9.817,0.153,0.096,0.001,0,0,17715,2021-01-15 19:02:25:968
9.817,0.153,0.096,0.001,0,0,17726,2021-01-15 19:02:25:979
9.817,0.153,0.096,0.001,0,0,17736,2021-01-15 19:02:25:989
9.819,0.134,0.098,0.001,0,0,17745,2021-01-15 19:02:25:998
9.819,0.134,0.098,0.001,0,0,17757,2021-01-15 19:02:26:010
9.819,0.134,0.098,0.001,0,0,17765,2021-01-15 19:02:26:018
9.819,0.134,0.098,0.001,0,0,17776,2021-01-15 19:02:26:029
9.819,0.134,0.098,0,0,0,17786,2021-01-15 19:02:26:039
9.819,0.134,0.098,0,0,0,17795,2021-01-15 19:02:26:048
9.795,0.134,0.103,0,0,0,17806,2021-01-15 19:02:26:059
9.795,0.134,0.103,0,0,0,17815,2021-01-15 19:02:26:068
9.795,0.134,0.103,0,0,0,17826,2021-01-15 19:02:26:079
9.795,0.134,0.103,0,0,0,17835,2021-01-15 19:02:26:088
9.795,0.134,0.103,0,0,0,17846,2021-01-15 19:02:26:099
9.795,0.134,0.103,0,0,0,17855,2021-01-15 19:02:26:108
9.8,0.127,0.079,0,0,0,17866,2021-01-15 19:02:26:119
9.8,0.127,0.079,0,0,0,17875,2021-01-15 19:02:26:128
9.8,0.127,0.079,0,0,0,17886,2021-01-15 19:02:26:139
9.8,0.127,0.079,0,0,0,17896,2021-01-15 19:02:26:149
9.8,0.127,0.079,0,0,0,17905,2021-01-15 19:02:26:158
9.8,0.127,0.079,0,0,0,17915,2021-01-15 19:02:26:168
9.802,0.125,0.105,0,0,0,17926,2021-01-15 19:02:26:179
9.802,0.125,0.105,0,0,0,17935,2021-01-15 19:02:26:188
9.802,0.125,0.105,0,0,0,17946,2021-01-15 19:02:26:199
9.802,0.125,0.105,0,0,0,17955,2021-01-15 19:02:26:208
9.802,0.125,0.105,0,0,0,17966,2021-01-15 19:02:26:219
9.802,0.125,0.105,0,0,0,17975,2021-01-15 19:02:26:228
9.797,0.139,0.086,0,0,0,17986,2021-01-15 19:02:26:239
9.797,0.139,0.086,0,0,0,17995,2021-01-15 19:02:26:248
9.797,0.139,0.086,0,0,0,18006,2021-01-15 19:02:26:259
9.797,0.139,0.086,0,0,0,18015,2021-01-15 19:02:26:268
9.797,0.139,0.086,0.001,0,0,18025,2021-01-15 19:02:26:278
9.797,0.139,0.086,0.001,0,0,18035,2021-01-15 19:02:26:288
9.817,0.122,0.079,0.001,0,0,18046,2021-01-15 19:02:26:299
9.817,0.122,0.079,0.001,0,0,18056,2021-01-15 19:02:26:309
9.817,0.122,0.079,0.001,0,0,18065,2021-01-15 19:02:26:318
9.817,0.122,0.079,0.001,0,0,18075,2021-01-15 19:02:26:328
9.817,0.122,0.079,0.001,0,0,18086,2021-01-15 19:02:26:339
9.817,0.122,0.079,0.001,0,0,18096,2021-01-15 19:02:26:349
9.812,0.125,0.098,0.001,0,0,18105,2021-01-15 19:02:26:358
9.812,0.125,0.098,0.001,0,0,18116,2021-01-15 19:02:26:369
9.812,0.125,0.098,0.001,0,0,18125,2021-01-15 19:02:26:378
9.812,0.125,0.098,0.001,0,0,18136,2021-01-15 19:02:26:389
9.812,0.125,0.098,0,0,0,18145,2021-01-15 19:02:26:398
9.812,0.125,0.098,0,0,0,18156,2021-01-15 19:02:26:409
9.805,0.134,0.113,0,0,0,18167,2021-01-15 19:02:26:420
9.805,0.134,0.113,0,0,0,18175,2021-01-15 19:02:26:428
9.805,0.134,0.113,0,0,0,18186,2021-01-15 19:02:26:439
9.805,0.134,0.113,0,0,0,18195,2021-01-15 19:02:26:448
9.805,0.134,0.113,0,0,0,18206,2021-01-15 19:02:26:459
9.805,0.134,0.113,0,0,0,18215,2021-01-15 19:02:26:468
9.821,0.134,0.098,0,0,0,18226,2021-01-15 19:02:26:479
9.821,0.134,0.098,0,0,0,18235,2021-01-15 19:02:26:488
9.821,0.134,0.098,0,0,0,18245,2021-01-15 19:02:26:498
9.821,0.134,0.098,0,0,0,18256,2021-01-15 19:02:26:509
9.821,0.134,0.098,0,0,0,18266,2021-01-15 19:02:26:519
9.821,0.134,0.098,0,0,0,18276,2021-01-15 19:02:26:529
9.802,0.134,0.089,0,0,0,18285,2021-01-15 19:02:26:538
9.802,0.134,0.089,0,0,0,18296,2021-01-15 19:02:26:549
9.802,0.134,0.089,0,0,0,18305,2021-01-15 19:02:26:558
9.802,0.134,0.089,0,0,0,18316,2021-01-15 19:02:26:569
9.802,0.134,0.089,0,0,0,18325,2021-01-15 19:02:26:578
9.802,0.134,0.089,0,0,0,18336,2021-01-15 19:02:26:589
9.802,0.134,0.089,0,0,0,18345,2021-01-15 19:02:26:598
9.802,0.134,0.089,0,0,0,18356,2021-01-15 19:02:26:609
9.802,0.134,0.089,0,0,0,18365,2021-01-15 19:02:26:618
9.785,0.127,0.091,0,0,0,18376,2021-01-15 19:02:26:629
9.785,0.127,0.091,0,0,0,18385,2021-01-15 19:02:26:638
9.785,0.127,0.091,0,0,0,18395,2021-01-15 19:02:26:648
9.785,0.127,0.091,0,0,0,18406,2021-01-15 19:02:26:659
9.785,0.127,0.091,0,0,0,18415,2021-01-15 19:02:26:668
9.785,0.127,0.091,0,0,0,18425,2021-01-15 19:02:26:678
9.785,0.127,0.091,0,0,0,18436,2021-01-15 19:02:26:689
9.817,0.134,0.101,0.001,0,0,18446,2021-01-15 19:02:26:699
9.817,0.134,0.101,0.001,0,0,18455,2021-01-15 19:02:26:708
9.817,0.134,0.101,0.001,0,0,18465,2021-01-15 19:02:26:718
9.817,0.134,0.101,0.001,0,0,18476,2021-01-15 19:02:26:729
9.817,0.134,0.101,0.001,0,0,18486,2021-01-15 19:02:26:739
9.817,0.134,0.101,0.001,0,0,18496,2021-01-15 19:02:26:749
9.793,0.136,0.101,0.001,0,0,18505,2021-01-15 19:02:26:758
9.793,0.136,0.101,0.001,0,0,18516,2021-01-15 19:02:26:769
9.793,0.136,0.101,0.001,0,0,18525,2021-01-15 19:02:26:778
9.793,0.136,0.101,0.001,0,0,18536,2021-01-15 19:02:26:789
9.793,0.136,0.101,0.001,0,0,18545,2021-01-15 19:02:26:798
9.793,0.136,0.101,0.001,0,0,18556,2021-01-15 19:02:26:809
9.812,0.141,0.079,0,0,0,18565,2021-01-15 19:02:26:818
9.812,0.141,0.079,0,0,0,18576,2021-01-15 19:02:26:829
9.812,0.141,0.079,0,0,0,18586,2021-01-15 19:02:26:839
9.812,0.141,0.079,0,0,0,18596,2021-01-15 19:02:26:849
9.812,0.141,0.079,0,0,0,18605,2021-01-15 19:02:26:858
9.812,0.141,0.079,0,0,0,18615,2021-01-15 19:02:26:868
9.824,0.144,0.086,0,0,0,18626,2021-01-15 19:02:26:879
9.824,0.144,0.086,0,0,0,18635,2021-01-15 19:02:26:888
9.824,0.144,0.086,0,0,0,18646,2021-01-15 19:02:26:899
9.824,0.144,0.086,0,0,0,18655,2021-01-15 19:02:26:908
9.824,0.144,0.086,0,0,0,18666,2021-01-15 19:02:26:919
9.824,0.144,0.086,0,0,0,18675,2021-01-15 19:02:26:928
9.797,0.156,0.093,0,0,0,18686,2021-01-15 19:02:26:939
9.797,0.156,0.093,0,0,0,18696,2021-01-15 19:02:26:949
9.797,0.156,0.093,0,0,0,18705,2021-01-15 19:02:26:958
9.797,0.156,0.093,0,0,0,18715,2021-01-15 19:02:26:968
9.797,0.156,0.093,0,0,0,18725,2021-01-15 19:02:26:978
9.797,0.156,0.093,0,0,0,18736,2021-01-15 19:02:26:989
9.817,0.141,0.096,0,0,0,18746,2021-01-15 19:02:26:999
9.817,0.141,0.096,0,0,0,18755,2021-01-15 19:02:27:008
9.817,0.141,0.096,0,0,0,18765,2021-01-15 19:02:27:018
9.817,0.141,0.096,0,0,0,18776,2021-01-15 19:02:27:029
9.817,0.141,0.096,0,0,0,18785,2021-01-15 19:02:27:038
9.817,0.141,0.096,0,0,0,18795,2021-01-15 19:02:27:048
9.817,0.122,0.101,0.001,0,0,18806,2021-01-15 19:02:27:059
9.817,0.122,0.101,0.001,0,0,18816,2021-01-15 19:02:27:069
9.817,0.122,0.101,0.001,0,0,18825,2021-01-15 19:02:27:078
9.817,0.122,0.101,0.001,0,0,18836,2021-01-15 19:02:27:089
9.817,0.122,0.101,0.001,0,0,18846,2021-01-15 19:02:27:099
9.817,0.122,0.101,0.001,0,0,18855,2021-01-15 19:02:27:108
9.809,0.136,0.101,0.001,0,0,18866,2021-01-15 19:02:27:119
9.809,0.136,0.101,0.001,0,0,18875,2021-01-15 19:02:27:128
9.809,0.136,0.101,0.001,0,0,18885,2021-01-15 19:02:27:138
9.809,0.136,0.101,0.001,0,0,18896,2021-01-15 19:02:27:149
9.809,0.136,0.101,0.001,0,0,18906,2021-01-15 19:02:27:159
9.809,0.136,0.101,0.001,0,0,18916,2021-01-15 19:02:27:169
9.819,0.132,0.117,0,-0.001,0,18925,2021-01-15 19:02:27:178
9.819,0.132,0.117,0,-0.001,0,18935,2021-01-15 19:02:27:188
9.819,0.132,0.117,0,-0.001,0,18946,2021-01-15 19:02:27:199
9.819,0.132,0.117,0,-0.001,0,18955,2021-01-15 19:02:27:208
9.819,0.132,0.117,0,-0.001,0,18966,2021-01-15 19:02:27:219
9.819,0.132,0.117,0,-0.001,0,18975,2021-01-15 19:02:27:228
9.819,0.132,0.117,0,-0.001,0,18986,2021-01-15 19:02:27:239
9.819,0.132,0.117,0,-0.001,0,18995,2021-01-15 19:02:27:248
9.819,0.132,0.117,0,-0.001,0,19006,2021-01-15 19:02:27:259
9.805,0.125,0.125,0,0,0,19015,2021-01-15 19:02:27:268
9.805,0.125,0.125,0,0,0,19026,2021-01-15 19:02:27:279
9.805,0.125,0.125,0,0,0,19035,2021-01-15 19:02:27:288
9.805,0.125,0.125,0,0,0,19046,2021-01-15 19:02:27:299
9.805,0.125,0.125,0,0,0,19055,2021-01-15 19:02:27:308
9.805,0.125,0.125,0,0,0,19065,2021-01-15 19:02:27:318
9.819,0.125,0.11,0,0,0,19076,2021-01-15 19:02:27:329
9.819,0.125,0.11,0,0,0,19085,2021-01-15 19:02:27:338
9.819,0.125,0.11,0,0,0,19095,2021-01-15 19:02:27:348
9.819,0.125,0.11,0,0,0,19106,2021-01-15 19:02:27:359
9.819,0.125,0.11,0,0,0,19115,2021-01-15 19:02:27:368
9.819,0.125,0.11,0,0,0,19125,2021-01-15 19:02:27:378
9.819,0.125,0.11,0,0,0,19136,2021-01-15 19:02:27:389
9.817,0.134,0.12,0,0,0,19145,2021-01-15 19:02:27:398
9.817,0.134,0.12,0,0,0,19155,2021-01-15 19:02:27:408
9.817,0.134,0.12,0,0,0,19166,2021-01-15 19:02:27:419
9.817,0.134,0.12,0,0,0,19175,2021-01-15 19:02:27:428
9.817,0.134,0.12,0,0,0,19186,2021-01-15 19:02:27:439
9.817,0.134,0.12,0,0,0,19195,2021-01-15 19:02:27:448
9.805,0.129,0.108,0,0,0,19205,2021-01-15 19:02:27:458
9.805,0.129,0.108,0,0,0,19216,2021-01-15 19:02:27:469
9.805,0.129,0.108,0,0,0,19226,2021-01-15 19:02:27:479
9.805,0.129,0.108,0,0,0,19235,2021-01-15 19:02:27:488
9.805,0.129,0.108,0,0,0,19246,2021-01-15 19:02:27:499
9.805,0.129,0.108,0,0,0,19255,2021-01-15 19:02:27:508
9.805,0.129,0.108,0,0,0,19265,2021-01-15 19:02:27:518
9.812,0.148,0.105,0,0,0,19276,2021-01-15 19:02:27:529
9.812,0.148,0.105,0,0,0,19285,2021-01-15 19:02:27:538
9.812,0.148,0.105,0,0,0,19295,2021-01-15 19:02:27:548
9.812,0.148,0.105,0,0,0,19306,2021-01-15 19:02:27:559
9.812,0.148,0.105,0,0,0,19316,2021-01-15 19:02:27:569
9.812,0.148,0.105,0,0,0,19325,2021-01-15 19:02:27:578
9.812,0.148,0.105,0,0,0,19336,2021-01-15 19:02:27:589
9.809,0.122,0.103,0,0,0,19346,2021-01-15 19:02:27:599
9.809,0.122,0.103,0,0,0,19355,2021-01-15 19:02:27:608
9.809,0.122,0.103,0,0,0,19366,2021-01-15 19:02:27:619
9.809,0.122,0.103,0,0,0,19375,2021-01-15 19:02:27:628
9.809,0.122,0.103,0,0,0,19385,2021-01-15 19:02:27:638
9.809,0.122,0.103,0,0,0,19396,2021-01-15 19:02:27:649
9.797,0.132,0.115,0,0,0,19406,2021-01-15 19:02:27:659
9.797,0.132,0.115,0,0,0,19415,2021-01-15 19:02:27:668
9.797,0.132,0.115,0,0,0,19426,2021-01-15 19:02:27:679
9.797,0.132,0.115,0,0,0,19436,2021-01-15 19:02:27:689
9.797,0.132,0.115,0,0,0,19445,2021-01-15 19:02:27:698
9.797,0.132,0.115,0,0,0,19455,2021-01-15 19:02:27:708
9.8,0.134,0.091,0,0,0,19466,2021-01-15 19:02:27:719
9.8,0.134,0.091,0,0,0,19475,2021-01-15 19:02:27:728
9.8,0.134,0.091,0,0,0,19485,2021-01-15 19:02:27:738
9.8,0.134,0.091,0,0,0,19496,2021-01-15 19:02:27:749
9.8,0.134,0.091,0,0,0,19506,2021-01-15 19:02:27:759
9.8,0.134,0.091,0,0,0,19515,2021-01-15 19:02:27:768
9.807,0.117,0.108,0,0,0,19526,2021-01-15 19:02:27:779
9.807,0.117,0.108,0,0,0,19536,2021-01-15 19:02:27:789
9.807,0.117,0.108,0,0,0,19545,2021-01-15 19:02:27:798
9.807,0.117,0.108,0,0,0,19555,2021-01-15 19:02:27:808
9.807,0.117,0.108,0,0,0,19566,2021-01-15 19:02:27:819
9.807,0.117,0.108,0,0,0,19575,2021-01-15 19:02:27:828
9.809,0.139,0.098,0,0,0,19586,2021-01-15 19:02:27:839
9.809,0.139,0.098,0,0,0,19595,2021-01-15 19:02:27:848
9.809,0.139,0.098,0,0,0,19605,2021-01-15 19:02:27:858
9.809,0.139,0.098,0,0,0,19616,2021-01-15 19:02:27:869
9.809,0.139,0.098,0,0,0,19626,2021-01-15 19:02:27:879
9.809,0.139,0.098,0,0,0,19635,2021-01-15 19:02:27:888
9.802,0.144,0.108,0,0,0,19645,2021-01-15 19:02:27:898
9.802,0.144,0.108,0,0,0,19656,2021-01-15 19:02:27:909
9.802,0.144,0.108,0,0,0,19666,2021-01-15 19:02:27:919
9.802,0.144,0.108,0,0,0,19675,2021-01-15 19:02:27:928
9.802,0.144,0.108,0,0,0,19686,2021-01-15 19:02:27:939
9.802,0.144,0.108,0,0,0,19696,2021-01-15 19:02:27:949
9.817,0.132,0.113,0,0,0,19705,2021-01-15 19:02:27:958
9.817,0.132,0.113,0,0,0,19716,2021-01-15 19:02:27:969
9.817,0.132,0.113,0,0,0,19725,2021-01-15 19:02:27:978
9.817,0.132,0.113,0,0,0,19735,2021-01-15 19:02:27:988
9.817,0.132,0.113,0,0,0,19746,2021-01-15 19:02:27:999
9.817,0.132,0.113,0,0,0,19755,2021-01-15 19:02:28:008
9.809,0.132,0.103,0,0,0,19766,2021-01-15 19:02:28:019
9.809,0.132,0.103,0,0,0,19775,2021-01-15 19:02:28:028
9.809,0.132,0.103,0,0,0,19786,2021-01-15 19:02:28:039
9.809,0.132,0.103,0,0,0,19796,2021-01-15 19:02:28:049
9.809,0.132,0.103,0,0,0,19805,2021-01-15 19:02:28:058
9.809,0.132,0.103,0,0,0,19816,2021-01-15 19:02:28:069
9.802,0.127,0.125,0.001,0,0,19826,2021-01-15 19:02:28:079
9.802,0.127,0.125,0.001,0,0,19835,2021-01-15 19:02:28:088
9.802,0.127,0.125,0.001,0,0,19846,2021-01-15 19:02:28:099
9.802,0.127,0.125,0.001,0,0,19856,2021-01-15 19:02:28:109
9.802,0.127,0.125,0.001,0,0,19865,2021-01-15 19:02:28:118
9.802,0.127,0.125,0.001,0,0,19875,2021-01-15 19:02:28:128
9.809,0.129,0.12,0.001,0,0,19886,2021-01-15 19:02:28:139
9.809,0.129,0.12,0.001,0,0,19895,2021-01-15 19:02:28:148
9.809,0.129,0.12,0.001,0,0,19905,2021-01-15 19:02:28:158
9.809,0.129,0.12,0.001,0,0,19915,2021-01-15 19:02:28:168
9.809,0.129,0.12,0.001,0,0,19926,2021-01-15 19:02:28:179
9.809,0.129,0.12,0.001,0,0,19935,2021-01-15 19:02:28:188
9.809,0.146,0.105,0.001,0,0,19945,2021-01-15 19:02:28:198
9.809,0.146,0.105,0.001,0,0,19956,2021-01-15 19:02:28:209
9.809,0.146,0.105,0.001,0,0,19966,2021-01-15 19:02:28:219
9.809,0.146,0.105,0.001,0,0,19975,2021-01-15 19:02:28:228
9.809,0.146,0.105,0.001,0,0,19986,2021-01-15 19:02:28:239
9.809,0.146,0.105,0.001,0,0,19995,2021-01-15 19:02:28:248
9.797,0.144,0.091,0.001,0,0,20005,2021-01-15 19:02:28:258
9.797,0.144,0.091,0.001,0,0,20016,2021-01-15 19:02:28:269
9.797,0.144,0.091,0.001,0,0,20025,2021-01-15 19:02:28:278
9.797,0.144,0.091,0.001,0,0,20035,2021-01-15 19:02:28:288
9.797,0.144,0.091,0.001,0,0,20045,2021-01-15 19:02:28:298
9.797,0.144,0.091,0.001,0,0,20056,2021-01-15 19:02:28:309
9.797,0.132,0.093,0,0,0,20066,2021-01-15 19:02:28:319
9.797,0.132,0.093,0,0,0,20075,2021-01-15 19:02:28:328
9.797,0.132,0.093,0,0,0,20086,2021-01-15 19:02:28:339
9.797,0.132,0.093,0,0,0,20096,2021-01-15 19:02:28:349
9.797,0.132,0.093,0,0,0,20106,2021-01-15 19:02:28:359
9.797,0.132,0.093,0,0,0,20115,2021-01-15 19:02:28:368
9.797,0.122,0.098,0,0,0,20125,2021-01-15 19:02:28:378
9.797,0.122,0.098,0,0,0,20136,2021-01-15 19:02:28:389
9.797,0.122,0.098,0,0,0,20145,2021-01-15 19:02:28:398
9.797,0.122,0.098,0,0,0,20156,2021-01-15 19:02:28:409
9.797,0.122,0.098,0,0,0,20166,2021-01-15 19:02:28:419
9.797,0.122,0.098,0,0,0,20176,2021-01-15 19:02:28:429
9.826,0.136,0.113,0,0,0,20185,2021-01-15 19:02:28:438
9.826,0.136,0.113,0,0,0,20196,2021-01-15 19:02:28:449
9.826,0.136,0.113,0,0,0,20205,2021-01-15 19:02:28:458
9.826,0.136,0.113,0,0,0,20216,2021-01-15 19:02:28:469
9.826,0.136,0.113,0,0,0,20226,2021-01-15 19:02:28:479
9.826,0.136,0.113,0,0,0,20235,2021-01-15 19:02:28:488
9.797,0.158,0.093,0,0,0,20245,2021-01-15 19:02:28:498
9.797,0.158,0.093,0,0,0,20256,2021-01-15 19:02:28:509
9.797,0.158,0.093,0,0,0,20265,2021-01-15 19:02:28:518
9.797,0.158,0.093,0,0,0,20276,2021-01-15 19:02:28:529
9.797,0.158,0.093,0,0,0,20286,2021-01-15 19:02:28:539
9.797,0.158,0.093,0,0,0,20295,2021-01-15 19:02:28:548
9.809,0.144,0.101,0,0,0,20306,2021-01-15 19:02:28:559
9.809,0.144,0.101,0,0,0,20315,2021-01-15 19:02:28:568
9.809,0.144,0.101,0,0,0,20326,2021-01-15 19:02:28:579
9.809,0.144,0.101,0,0,0,20335,2021-01-15 19:02:28:588
9.809,0.144,0.101,0,0,0,20345,2021-01-15 19:02:28:598
9.809,0.144,0.101,0,0,0,20356,2021-01-15 19:02:28:609
9.797,0.139,0.108,0,0,0,20365,2021-01-15 19:02:28:618
9.797,0.139,0.108,0,0,0,20376,2021-01-15 19:02:28:629
9.797,0.139,0.108,0,0,0,20385,2021-01-15 19:02:28:638
9.797,0.139,0.108,0,0,0,20396,2021-01-15 19:02:28:649
9.797,0.139,0.108,0,0,0,20405,2021-01-15 19:02:28:658
9.797,0.139,0.108,0,0,0,20416,2021-01-15 19:02:28:669
9.797,0.139,0.096,0,0,0,20425,2021-01-15 19:02:28:678
9.797,0.139,0.096,0,0,0,20436,2021-01-15 19:02:28:689
9.797,0.139,0.096,0,0,0,20446,2021-01-15 19:02:28:699
9.797,0.139,0.096,0,0,0,20455,2021-01-15 19:02:28:708
9.797,0.139,0.096,0,0,0,20466,2021-01-15 19:02:28:719
9.797,0.139,0.096,0,0,0,20475,2021-01-15 19:02:28:728
9.802,0.136,0.11,0,0,0,20486,2021-01-15 19:02:28:739
9.802,0.136,0.11,0,0,0,20495,2021-01-15 19:02:28:748
9.802,0.136,0.11,0,0,0,20506,2021-01-15 19:02:28:759
9.802,0.136,0.11,0,0,0,20515,2021-01-15 19:02:28:768
9.802,0.136,0.11,0,0,0,20526,2021-01-15 19:02:28:779
9.802,0.136,0.11,0,0,0,20535,2021-01-15 19:02:28:788
9.8,0.141,0.101,0,0,0,20546,2021-01-15 19:02:28:799
9.8,0.141,0.101,0,0,0,20555,2021-01-15 19:02:28:808
9.8,0.141,0.101,0,0,0,20566,2021-01-15 19:02:28:819
9.8,0.141,0.101,0,0,0,20576,2021-01-15 19:02:28:829
9.8,0.141,0.101,0,0,0,20586,2021-01-15 19:02:28:839
9.8,0.141,0.101,0,0,0,20595,2021-01-15 19:02:28:848
9.8,0.132,0.113,0,0,0,20606,2021-01-15 19:02:28:859
9.8,0.132,0.113,0,0,0,20615,2021-01-15 19:02:28:868
9.8,0.132,0.113,0,0,0,20626,2021-01-15 19:02:28:879
9.8,0.132,0.113,0,0,0,20635,2021-01-15 19:02:28:888
9.8,0.132,0.113,0,0,0,20648,2021-01-15 19:02:28:901
9.8,0.132,0.113,0,0,0,20656,2021-01-15 19:02:28:909
9.79,0.134,0.125,0,0,0,20665,2021-01-15 19:02:28:918
9.79,0.134,0.125,0,0,0,20676,2021-01-15 19:02:28:929
9.79,0.134,0.125,0,0,0,20686,2021-01-15 19:02:28:939
9.79,0.134,0.125,0,0,0,20695,2021-01-15 19:02:28:948
9.79,0.134,0.125,0,0,0,20706,2021-01-15 19:02:28:959
9.79,0.134,0.125,0,0,0,20715,2021-01-15 19:02:28:968
9.824,0.141,0.113,0,0,0,20726,2021-01-15 19:02:28:979
9.824,0.141,0.113,0,0,0,20736,2021-01-15 19:02:28:989
9.824,0.141,0.113,0,0,0,20745,2021-01-15 19:02:28:998
9.824,0.141,0.113,0,0,0,20756,2021-01-15 19:02:29:009
9.824,0.141,0.113,0,0,0,20765,2021-01-15 19:02:29:018
9.824,0.141,0.113,0,0,0,20776,2021-01-15 19:02:29:029
9.795,0.134,0.113,0,0,0,20785,2021-01-15 19:02:29:038
9.795,0.134,0.113,0,0,0,20796,2021-01-15 19:02:29:049
9.795,0.134,0.113,0,0,0,20805,2021-01-15 19:02:29:058
9.795,0.134,0.113,0,0,0,20816,2021-01-15 19:02:29:069
9.795,0.134,0.113,0,0,0,20825,2021-01-15 19:02:29:078
9.795,0.134,0.113,0,0,0,20836,2021-01-15 19:02:29:089
9.812,0.144,0.132,0,0,0,20845,2021-01-15 19:02:29:098
9.812,0.144,0.132,0,0,0,20856,2021-01-15 19:02:29:109
9.812,0.144,0.132,0,0,0,20865,2021-01-15 19:02:29:118
9.812,0.144,0.132,0,0,0,20876,2021-01-15 19:02:29:129
9.812,0.144,0.132,0,0,0,20885,2021-01-15 19:02:29:138
9.812,0.144,0.132,0,0,0,20896,2021-01-15 19:02:29:149
9.807,0.132,0.103,0,0,0,20905,2021-01-15 19:02:29:158
9.807,0.132,0.103,0,0,0,20919,2021-01-15 19:02:29:172
9.807,0.132,0.103,0,0,0,20926,2021-01-15 19:02:29:179
9.807,0.132,0.103,0,0,0,20936,2021-01-15 19:02:29:189
9.807,0.132,0.103,0,0,0,20945,2021-01-15 19:02:29:198
9.807,0.132,0.103,0,0,0,20956,2021-01-15 19:02:29:209
9.795,0.134,0.108,0,0,0,20965,2021-01-15 19:02:29:218
9.795,0.134,0.108,0,0,0,20976,2021-01-15 19:02:29:229
9.795,0.134,0.108,0,0,0,20985,2021-01-15 19:02:29:238
9.795,0.134,0.108,0,0,0,20996,2021-01-15 19:02:29:249
9.795,0.134,0.108,0,0,0,21005,2021-01-15 19:02:29:258
9.795,0.134,0.108,0,0,0,21016,2021-01-15 19:02:29:269
9.783,0.144,0.115,0,0,0,21026,2021-01-15 19:02:29:279
9.783,0.144,0.115,0,0,0,21035,2021-01-15 19:02:29:288
9.783,0.144,0.115,0,0,0,21046,2021-01-15 19:02:29:299
9.783,0.144,0.115,0,0,0,21056,2021-01-15 19:02:29:309
9.783,0.144,0.115,0,0,0,21066,2021-01-15 19:02:29:319
9.783,0.144,0.115,0,0,0,21076,2021-01-15 19:02:29:329
9.797,0.125,0.105,0,0,0,21086,2021-01-15 19:02:29:339
9.797,0.125,0.105,0,0,0,21096,2021-01-15 19:02:29:349
9.797,0.125,0.105,0,0,0,21106,2021-01-15 19:02:29:359
9.797,0.125,0.105,0,0,0,21116,2021-01-15 19:02:29:369
9.797,0.125,0.105,0,0,0,21125,2021-01-15 19:02:29:378
9.797,0.125,0.105,0,0,0,21136,2021-01-15 19:02:29:389
9.814,0.132,0.096,0.001,0,0,21145,2021-01-15 19:02:29:398
9.814,0.132,0.096,0.001,0,0,21156,2021-01-15 19:02:29:409
9.814,0.132,0.096,0.001,0,0,21165,2021-01-15 19:02:29:418
9.814,0.132,0.096,0.001,0,0,21176,2021-01-15 19:02:29:429
9.814,0.132,0.096,0.001,0,0,21185,2021-01-15 19:02:29:438
9.814,0.132,0.096,0.001,0,0,21196,2021-01-15 19:02:29:449
9.824,0.127,0.11,0.001,0,0,21205,2021-01-15 19:02:29:458
9.824,0.127,0.11,0.001,0,0,21216,2021-01-15 19:02:29:469
9.824,0.127,0.11,0.001,0,0,21225,2021-01-15 19:02:29:478
9.824,0.127,0.11,0.001,0,0,21236,2021-01-15 19:02:29:489
9.824,0.127,0.11,0.001,0,0,21245,2021-01-15 19:02:29:498
9.824,0.127,0.11,0.001,0,0,21256,2021-01-15 19:02:29:509
9.805,0.129,0.101,0,0,0,21265,2021-01-15 19:02:29:518
9.805,0.129,0.101,0,0,0,21276,2021-01-15 19:02:29:529
9.805,0.129,0.101,0,0,0,21286,2021-01-15 19:02:29:539
9.805,0.129,0.101,0,0,0,21295,2021-01-15 19:02:29:548
9.805,0.129,0.101,0,0,0,21306,2021-01-15 19:02:29:559
9.805,0.129,0.101,0,0,0,21315,2021-01-15 19:02:29:568
9.819,0.136,0.117,0,0,0,21326,2021-01-15 19:02:29:579
9.819,0.136,0.117,0,0,0,21335,2021-01-15 19:02:29:588
9.819,0.136,0.117,0,0,0,21346,2021-01-15 19:02:29:599
9.819,0.136,0.117,0,0,0,21356,2021-01-15 19:02:29:609
9.819,0.136,0.117,0,0,0,21365,2021-01-15 19:02:29:618
9.819,0.136,0.117,0,0,0,21376,2021-01-15 19:02:29:629
9.805,0.153,0.098,0,0,0,21387,2021-01-15 19:02:29:640
9.805,0.153,0.098,0,0,0,21396,2021-01-15 19:02:29:649
9.805,0.153,0.098,0,0,0,21406,2021-01-15 19:02:29:659
9.805,0.153,0.098,0,0,0,21416,2021-01-15 19:02:29:669
9.805,0.153,0.098,0,0,0,21426,2021-01-15 19:02:29:679
9.805,0.153,0.098,0,0,0,21438,2021-01-15 19:02:29:691
9.807,0.139,0.11,0,0,0,21447,2021-01-15 19:02:29:700
9.807,0.139,0.11,0,0,0,21457,2021-01-15 19:02:29:710
9.807,0.139,0.11,0,0,0,21465,2021-01-15 19:02:29:718
9.807,0.139,0.11,0,0,0,21476,2021-01-15 19:02:29:729
9.807,0.139,0.11,0,0,0,21486,2021-01-15 19:02:29:739
9.807,0.139,0.11,0,0,0,21496,2021-01-15 19:02:29:749
9.793,0.139,0.105,0,0,0,21505,2021-01-15 19:02:29:758
9.793,0.139,0.105,0,0,0,21516,2021-01-15 19:02:29:769
9.793,0.139,0.105,0,0,0,21525,2021-01-15 19:02:29:778
9.793,0.139,0.105,0,0,0,21536,2021-01-15 19:02:29:789
9.793,0.139,0.105,0,0,0,21546,2021-01-15 19:02:29:799
9.793,0.139,0.105,0,0,0,21556,2021-01-15 19:02:29:809
9.812,0.136,0.11,0,0,0,21565,2021-01-15 19:02:29:818
9.812,0.136,0.11,0,0,0,21576,2021-01-15 19:02:29:829
9.812,0.136,0.11,0,0,0,21586,2021-01-15 19:02:29:839
9.812,0.136,0.11,0,0,0,21596,2021-01-15 19:02:29:849
9.812,0.136,0.11,0,0,0,21606,2021-01-15 19:02:29:859
9.812,0.136,0.11,0,0,0,21616,2021-01-15 19:02:29:869
9.802,0.134,0.129,0,0,0,21625,2021-01-15 19:02:29:878
9.802,0.134,0.129,0,0,0,21638,2021-01-15 19:02:29:891
9.802,0.134,0.129,0,0,0,21646,2021-01-15 19:02:29:899
9.802,0.134,0.129,0,0,0,21656,2021-01-15 19:02:29:909
9.802,0.134,0.129,0,0,0,21665,2021-01-15 19:02:29:918
9.802,0.134,0.129,0,0,0,21676,2021-01-15 19:02:29:929
9.814,0.151,0.098,0,0,0,21686,2021-01-15 19:02:29:939
9.814,0.151,0.098,0,0,0,21696,2021-01-15 19:02:29:949
9.814,0.151,0.098,0,0,0,21706,2021-01-15 19:02:29:959
9.814,0.151,0.098,0,0,0,21716,2021-01-15 19:02:29:969
9.814,0.151,0.098,0,0,0,21726,2021-01-15 19:02:29:979
9.814,0.151,0.098,0,0,0,21735,2021-01-15 19:02:29:988
9.821,0.136,0.117,0,0,0,21746,2021-01-15 19:02:29:999
9.821,0.136,0.117,0,0,0,21756,2021-01-15 19:02:30:009
9.821,0.136,0.117,0,0,0,21766,2021-01-15 19:02:30:019
9.821,0.136,0.117,0,0,0,21776,2021-01-15 19:02:30:029
9.821,0.136,0.117,0,0,0,21786,2021-01-15 19:02:30:039
9.821,0.136,0.117,0,0,0,21796,2021-01-15 19:02:30:049
9.809,0.134,0.113,0,0,0,21806,2021-01-15 19:02:30:059
9.809,0.134,0.113,0,0,0,21816,2021-01-15 19:02:30:069
9.809,0.134,0.113,0,0,0,21826,2021-01-15 19:02:30:079
9.809,0.134,0.113,0,0,0,21836,2021-01-15 19:02:30:089
9.809,0.134,0.113,0,0,0,21846,2021-01-15 19:02:30:099
9.809,0.134,0.113,0,0,0,21856,2021-01-15 19:02:30:109
9.807,0.125,0.103,0,0,0,21865,2021-01-15 19:02:30:118
9.807,0.125,0.103,0,0,0,21876,2021-01-15 19:02:30:129
9.807,0.125,0.103,0,0,0,21886,2021-01-15 19:02:30:139
9.807,0.125,0.103,0,0,0,21896,2021-01-15 19:02:30:149
9.807,0.125,0.103,0,0,0,21906,2021-01-15 19:02:30:159
9.807,0.125,0.103,0,0,0,21917,2021-01-15 19:02:30:170
9.809,0.146,0.122,0,0,0,21926,2021-01-15 19:02:30:179
9.809,0.146,0.122,0,0,0,21936,2021-01-15 19:02:30:189
9.809,0.146,0.122,0,0,0,21946,2021-01-15 19:02:30:199
9.809,0.146,0.122,0,0,0,21956,2021-01-15 19:02:30:209
9.809,0.146,0.122,0,0,0,21966,2021-01-15 19:02:30:219
9.809,0.146,0.122,0,0,0,21975,2021-01-15 19:02:30:228
9.819,0.127,0.096,0,0,0,21986,2021-01-15 19:02:30:239
9.819,0.127,0.096,0,0,0,21995,2021-01-15 19:02:30:248
9.819,0.127,0.096,0,0,0,22006,2021-01-15 19:02:30:259
9.819,0.127,0.096,0,0,0,22015,2021-01-15 19:02:30:268
9.819,0.127,0.096,0,0,0,22025,2021-01-15 19:02:30:278
9.819,0.127,0.096,0,0,0,22036,2021-01-15 19:02:30:289
9.797,0.144,0.103,0,0,0,22046,2021-01-15 19:02:30:299
9.797,0.144,0.103,0,0,0,22056,2021-01-15 19:02:30:309
9.797,0.144,0.103,0,0,0,22065,2021-01-15 19:02:30:318
9.797,0.144,0.103,0,0,0,22076,2021-01-15 19:02:30:329
9.797,0.144,0.103,0,0,0,22085,2021-01-15 19:02:30:338
9.797,0.144,0.103,0,0,0,22096,2021-01-15 19:02:30:349
9.802,0.153,0.098,0,0,0,22105,2021-01-15 19:02:30:358
9.802,0.153,0.098,0,0,0,22116,2021-01-15 19:02:30:369
9.802,0.153,0.098,0,0,0,22126,2021-01-15 19:02:30:379
9.802,0.153,0.098,0,0,0,22135,2021-01-15 19:02:30:388
9.802,0.153,0.098,0,0,0,22145,2021-01-15 19:02:30:398
9.802,0.153,0.098,0,0,0,22156,2021-01-15 19:02:30:409
9.814,0.132,0.113,0,0,0,22166,2021-01-15 19:02:30:419
9.814,0.132,0.113,0,0,0,22176,2021-01-15 19:02:30:429
9.814,0.132,0.113,0,0,0,22186,2021-01-15 19:02:30:439
9.814,0.132,0.113,0,0,0,22196,2021-01-15 19:02:30:449
9.814,0.132,0.113,0,0,0,22205,2021-01-15 19:02:30:458
9.814,0.132,0.113,0,0,0,22216,2021-01-15 19:02:30:469
9.8,0.129,0.11,0,0,0,22236,2021-01-15 19:02:30:489
