ACCELEROMETER X (m/s²),ACCELEROMETER Y (m/s²),ACCELEROMETER Z (m/s²),GYROSCOPE X (rad/s),GYROSCOPE Y (rad/s),GYROSCOPE Z (rad/s),Time since start in ms ,YYYY-MO-DD HH-MI-SS_SSS
-9.718,-0.172,0.4,0.001,0,0,14,2021-01-15 19:03:29:413
-9.718,-0.172,0.4,0.001,0,0,24,2021-01-15 19:03:29:423
-9.718,-0.172,0.4,0.001,0,0,34,2021-01-15 19:03:29:433
-9.718,-0.172,0.4,0.001,0,0,44,2021-01-15 19:03:29:443
-9.718,-0.172,0.4,0.001,0,0,53,2021-01-15 19:03:29:452
-9.718,-0.172,0.4,0.001,0,0,64,2021-01-15 19:03:29:463
-9.716,-0.175,0.388,0.001,0,0,74,2021-01-15 19:03:29:473
-9.716,-0.175,0.388,0.001,0,0,84,2021-01-15 19:03:29:483
-9.716,-0.175,0.388,0.001,0,0,94,2021-01-15 19:03:29:493
-9.716,-0.175,0.388,0.001,0,0,104,2021-01-15 19:03:29:503
-9.716,-0.175,0.388,0,0,0,114,2021-01-15 19:03:29:513
-9.716,-0.175,0.388,0,0,0,125,2021-01-15 19:03:29:524
-9.711,-0.153,0.388,0,0,0,135,2021-01-15 19:03:29:534
-9.711,-0.153,0.388,0,0,0,144,2021-01-15 19:03:29:543
-9.711,-0.153,0.388,0,0,0,154,2021-01-15 19:03:29:553
-9.711,-0.153,0.388,0,0,0,164,2021-01-15 19:03:29:563
-9.711,-0.153,0.388,0,0,0,174,2021-01-15 19:03:29:573
-9.711,-0.153,0.388,0,0,0,184,2021-01-15 19:03:29:583
-9.706,-0.16,0.383,0,0,0,194,2021-01-15 19:03:29:593
-9.706,-0.16,0.383,0,0,0,203,2021-01-15 19:03:29:602
-9.706,-0.16,0.383,0,0,0,214,2021-01-15 19:03:29:613
-9.706,-0.16,0.383,0,0,0,224,2021-01-15 19:03:29:623
-9.706,-0.16,0.383,0,0.001,0,235,2021-01-15 19:03:29:634
-9.706,-0.16,0.383,0,0.001,0,245,2021-01-15 19:03:29:644
-9.718,-0.16,0.393,0,0.001,0,254,2021-01-15 19:03:29:653
-9.718,-0.16,0.393,0,0.001,0,266,2021-01-15 19:03:29:665
-9.718,-0.16,0.393,0,0.001,0,274,2021-01-15 19:03:29:673
-9.718,-0.16,0.393,0,0.001,0,284,2021-01-15 19:03:29:683
-9.718,-0.16,0.393,0,0.001,0,293,2021-01-15 19:03:29:692
-9.718,-0.16,0.393,0,0.001,0,304,2021-01-15 19:03:29:703
-9.723,-0.177,0.376,0,0.001,0,314,2021-01-15 19:03:29:713
-9.723,-0.177,0.376,0,0.001,0,324,2021-01-15 19:03:29:723
-9.723,-0.177,0.376,0,0.001,0,334,2021-01-15 19:03:29:733
-9.723,-0.177,0.376,0,0.001,0,344,2021-01-15 19:03:29:743
-9.723,-0.177,0.376,0,0,0,354,2021-01-15 19:03:29:753
-9.728,-0.156,0.39,0,0,0,370,2021-01-15 19:03:29:769
-9.728,-0.156,0.39,0,0,0,374,2021-01-15 19:03:29:773
-9.728,-0.156,0.39,0,0,0,384,2021-01-15 19:03:29:783
-9.728,-0.156,0.39,0,0,0,395,2021-01-15 19:03:29:794
-9.728,-0.156,0.39,0,0,0,404,2021-01-15 19:03:29:803
-9.728,-0.156,0.39,0,0,0,414,2021-01-15 19:03:29:813
-9.728,-0.156,0.39,0,0,0,424,2021-01-15 19:03:29:823
-9.747,-0.156,0.388,0,0,0,434,2021-01-15 19:03:29:833
-9.747,-0.156,0.388,0,0,0,445,2021-01-15 19:03:29:844
-9.747,-0.156,0.388,0,0,0,457,2021-01-15 19:03:29:856
-9.747,-0.156,0.388,0,0,0,464,2021-01-15 19:03:29:863
-9.747,-0.156,0.388,0,0.001,0,478,2021-01-15 19:03:29:877
-9.747,-0.156,0.388,0,0.001,0,484,2021-01-15 19:03:29:883
-9.73,-0.148,0.4,0,0.001,0,495,2021-01-15 19:03:29:894
-9.73,-0.148,0.4,0,0.001,0,504,2021-01-15 19:03:29:903
-9.73,-0.148,0.4,0,0.001,0,515,2021-01-15 19:03:29:914
-9.73,-0.148,0.4,0,0.001,0,524,2021-01-15 19:03:29:923
-9.73,-0.148,0.4,0,0.001,0,534,2021-01-15 19:03:29:933
-9.73,-0.148,0.4,0,0.001,0,544,2021-01-15 19:03:29:943
-9.721,-0.168,0.397,0,0.001,0,554,2021-01-15 19:03:29:953
-9.721,-0.168,0.397,0,0.001,0,564,2021-01-15 19:03:29:963
-9.721,-0.168,0.397,0,0.001,0,574,2021-01-15 19:03:29:973
-9.721,-0.168,0.397,0,0.001,0,584,2021-01-15 19:03:29:983
-9.721,-0.168,0.397,0,0,0,594,2021-01-15 19:03:29:993
-9.721,-0.168,0.397,0,0,0,604,2021-01-15 19:03:30:003
-9.716,-0.18,0.4,0,0,0,615,2021-01-15 19:03:30:014
-9.716,-0.18,0.4,0,0,0,624,2021-01-15 19:03:30:023
-9.716,-0.18,0.4,0,0,0,634,2021-01-15 19:03:30:033
-9.716,-0.18,0.4,0,0,0,645,2021-01-15 19:03:30:044
-9.716,-0.18,0.4,0,0,0,654,2021-01-15 19:03:30:053
-9.716,-0.18,0.4,0,0,0,664,2021-01-15 19:03:30:063
-9.726,-0.16,0.397,0,0,0,674,2021-01-15 19:03:30:073
-9.726,-0.16,0.397,0,0,0,684,2021-01-15 19:03:30:083
-9.726,-0.16,0.397,0,0,0,694,2021-01-15 19:03:30:093
-9.726,-0.16,0.397,0,0,0,704,2021-01-15 19:03:30:103
-9.726,-0.16,0.397,0,0,0,714,2021-01-15 19:03:30:113
-9.726,-0.16,0.397,0,0,0,727,2021-01-15 19:03:30:126
-9.73,-0.175,0.393,0,0,0,734,2021-01-15 19:03:30:133
-9.73,-0.175,0.393,0,0,0,744,2021-01-15 19:03:30:143
-9.73,-0.175,0.393,0,0,0,754,2021-01-15 19:03:30:153
-9.73,-0.175,0.393,0,0,0,764,2021-01-15 19:03:30:163
-9.73,-0.175,0.393,0,0,0,775,2021-01-15 19:03:30:174
-9.73,-0.175,0.393,0,0,0,784,2021-01-15 19:03:30:183
-9.73,-0.184,0.39,0,0,0,795,2021-01-15 19:03:30:194
-9.73,-0.184,0.39,0,0,0,804,2021-01-15 19:03:30:203
-9.73,-0.184,0.39,0,0,0,813,2021-01-15 19:03:30:212
-9.73,-0.184,0.39,0,0,0,825,2021-01-15 19:03:30:224
-9.73,-0.184,0.39,0,0,0,834,2021-01-15 19:03:30:233
-9.73,-0.184,0.39,0,0,0,844,2021-01-15 19:03:30:243
-9.723,-0.165,0.376,0,0,0,854,2021-01-15 19:03:30:253
-9.723,-0.165,0.376,0,0,0,865,2021-01-15 19:03:30:264
-9.723,-0.165,0.376,0,0,0,874,2021-01-15 19:03:30:273
-9.723,-0.165,0.376,0,0,0,885,2021-01-15 19:03:30:284
-9.723,-0.165,0.376,0,0,0,894,2021-01-15 19:03:30:293
-9.723,-0.165,0.376,0,0,0,904,2021-01-15 19:03:30:303
-9.723,-0.172,0.378,0,0,0,914,2021-01-15 19:03:30:313
-9.723,-0.172,0.378,0,0,0,923,2021-01-15 19:03:30:322
-9.723,-0.172,0.378,0,0,0,934,2021-01-15 19:03:30:333
-9.723,-0.172,0.378,0,0,0,944,2021-01-15 19:03:30:343
-9.723,-0.172,0.378,0,0,0,954,2021-01-15 19:03:30:353
-9.723,-0.172,0.378,0,0,0,963,2021-01-15 19:03:30:362
-9.704,-0.168,0.376,0,0,0,974,2021-01-15 19:03:30:373
-9.704,-0.168,0.376,0,0,0,984,2021-01-15 19:03:30:383
-9.704,-0.168,0.376,0,0,0,997,2021-01-15 19:03:30:396
-9.704,-0.168,0.376,0,0,0,1004,2021-01-15 19:03:30:403
-9.704,-0.168,0.376,0,0,0,1018,2021-01-15 19:03:30:417
-9.704,-0.168,0.376,0,0,0,1024,2021-01-15 19:03:30:423
-9.706,-0.177,0.381,0,0,0,1034,2021-01-15 19:03:30:433
-9.706,-0.177,0.381,0,0,0,1044,2021-01-15 19:03:30:443
-9.706,-0.177,0.381,0,0,0,1054,2021-01-15 19:03:30:453
-9.706,-0.177,0.381,0,0,0,1065,2021-01-15 19:03:30:464
-9.706,-0.177,0.381,-0.001,0.002,0,1074,2021-01-15 19:03:30:473
-9.706,-0.177,0.381,-0.001,0.002,0,1084,2021-01-15 19:03:30:483
-9.73,-0.148,0.395,-0.001,0.002,0,1093,2021-01-15 19:03:30:492
-9.73,-0.148,0.395,-0.001,0.002,0,1104,2021-01-15 19:03:30:503
-9.73,-0.148,0.395,-0.001,0.002,0,1114,2021-01-15 19:03:30:513
-9.73,-0.148,0.395,-0.001,0.002,0,1124,2021-01-15 19:03:30:523
-9.73,-0.148,0.395,-0.001,0.002,0,1133,2021-01-15 19:03:30:532
-9.73,-0.148,0.395,-0.001,0.002,0,1144,2021-01-15 19:03:30:543
-9.704,-0.172,0.376,-0.001,0.002,0,1154,2021-01-15 19:03:30:553
-9.704,-0.172,0.376,-0.001,0.002,0,1164,2021-01-15 19:03:30:563
-9.704,-0.172,0.376,-0.001,0.002,0,1174,2021-01-15 19:03:30:573
-9.704,-0.172,0.376,-0.001,0.002,0,1184,2021-01-15 19:03:30:583
-9.704,-0.172,0.376,-0.001,0.001,0,1194,2021-01-15 19:03:30:593
-9.704,-0.172,0.376,-0.001,0.001,0,1204,2021-01-15 19:03:30:603
-9.702,-0.168,0.409,-0.001,0.001,0,1213,2021-01-15 19:03:30:612
-9.702,-0.168,0.409,-0.001,0.001,0,1224,2021-01-15 19:03:30:623
-9.702,-0.168,0.409,-0.001,0.001,0,1235,2021-01-15 19:03:30:634
-9.702,-0.168,0.409,-0.001,0.001,0,1244,2021-01-15 19:03:30:643
-9.702,-0.168,0.409,-0.001,0.001,0,1254,2021-01-15 19:03:30:653
-9.702,-0.168,0.409,-0.001,0.001,0,1264,2021-01-15 19:03:30:663
-9.721,-0.17,0.402,-0.001,0.001,0,1274,2021-01-15 19:03:30:673
-9.721,-0.17,0.402,-0.001,0.001,0,1284,2021-01-15 19:03:30:683
-9.721,-0.17,0.402,-0.001,0.001,0,1294,2021-01-15 19:03:30:693
-9.721,-0.17,0.402,-0.001,0.001,0,1304,2021-01-15 19:03:30:703
-9.721,-0.17,0.402,-0.001,0.001,0,1315,2021-01-15 19:03:30:714
-9.721,-0.17,0.402,-0.001,0.001,0,1324,2021-01-15 19:03:30:723
-9.706,-0.172,0.407,-0.001,0.001,0,1334,2021-01-15 19:03:30:733
-9.706,-0.172,0.407,-0.001,0.001,0,1344,2021-01-15 19:03:30:743
-9.706,-0.172,0.407,-0.001,0.001,0,1354,2021-01-15 19:03:30:753
-9.706,-0.172,0.407,-0.001,0.001,0,1364,2021-01-15 19:03:30:763
-9.706,-0.172,0.407,-0.001,0.001,0,1374,2021-01-15 19:03:30:773
-9.706,-0.172,0.407,-0.001,0.001,0,1384,2021-01-15 19:03:30:783
-9.721,-0.153,0.395,-0.001,0.001,0,1393,2021-01-15 19:03:30:792
-9.721,-0.153,0.395,-0.001,0.001,0,1405,2021-01-15 19:03:30:804
-9.721,-0.153,0.395,-0.001,0.001,0,1414,2021-01-15 19:03:30:813
-9.721,-0.153,0.395,-0.001,0.001,0,1424,2021-01-15 19:03:30:823
-9.721,-0.153,0.395,0,0,0,1434,2021-01-15 19:03:30:833
-9.721,-0.153,0.395,0,0,0,1444,2021-01-15 19:03:30:843
-9.726,-0.165,0.388,0,0,0,1454,2021-01-15 19:03:30:853
-9.726,-0.165,0.388,0,0,0,1464,2021-01-15 19:03:30:863
-9.726,-0.165,0.388,0,0,0,1474,2021-01-15 19:03:30:873
-9.726,-0.165,0.388,0,0,0,1484,2021-01-15 19:03:30:883
-9.726,-0.165,0.388,0,0,0,1494,2021-01-15 19:03:30:893
-9.726,-0.165,0.388,0,0,0,1504,2021-01-15 19:03:30:903
-9.721,-0.175,0.385,0,0,0,1514,2021-01-15 19:03:30:913
-9.721,-0.175,0.385,0,0,0,1524,2021-01-15 19:03:30:923
-9.721,-0.175,0.385,0,0,0,1535,2021-01-15 19:03:30:934
-9.721,-0.175,0.385,0,0,0,1544,2021-01-15 19:03:30:943
-9.721,-0.175,0.385,0,0,0,1554,2021-01-15 19:03:30:953
-9.721,-0.175,0.385,0,0,0,1564,2021-01-15 19:03:30:963
-9.716,-0.175,0.388,0,0,0,1574,2021-01-15 19:03:30:973
-9.716,-0.175,0.388,0,0,0,1584,2021-01-15 19:03:30:983
-9.716,-0.175,0.388,0,0,0,1594,2021-01-15 19:03:30:993
-9.716,-0.175,0.388,0,0,0,1604,2021-01-15 19:03:31:003
-9.716,-0.175,0.388,0,0,0,1614,2021-01-15 19:03:31:013
-9.716,-0.175,0.388,0,0,0,1624,2021-01-15 19:03:31:023
-9.735,-0.16,0.393,0,0,0,1634,2021-01-15 19:03:31:033
-9.735,-0.16,0.393,0,0,0,1644,2021-01-15 19:03:31:043
-9.735,-0.16,0.393,0,0,0,1653,2021-01-15 19:03:31:052
-9.735,-0.16,0.393,0,0,0,1666,2021-01-15 19:03:31:065
-9.735,-0.16,0.393,0,0,0,1674,2021-01-15 19:03:31:073
-9.735,-0.16,0.393,0,0,0,1684,2021-01-15 19:03:31:083
-9.726,-0.168,0.39,0,0,0,1693,2021-01-15 19:03:31:092
-9.726,-0.168,0.39,0,0,0,1704,2021-01-15 19:03:31:103
-9.726,-0.168,0.39,0,0,0,1713,2021-01-15 19:03:31:112
-9.726,-0.168,0.39,0,0,0,1724,2021-01-15 19:03:31:123
-9.726,-0.168,0.39,0,0,0,1734,2021-01-15 19:03:31:133
-9.726,-0.168,0.39,0,0,0,1744,2021-01-15 19:03:31:143
-9.714,-0.172,0.378,0,0,0,1754,2021-01-15 19:03:31:153
-9.714,-0.172,0.378,0,0,0,1764,2021-01-15 19:03:31:163
-9.714,-0.172,0.378,0,0,0,1774,2021-01-15 19:03:31:173
-9.714,-0.172,0.378,0,0,0,1784,2021-01-15 19:03:31:183
-9.714,-0.172,0.378,0,0,0,1795,2021-01-15 19:03:31:194
-9.714,-0.172,0.378,0,0,0,1804,2021-01-15 19:03:31:203
-9.721,-0.17,0.402,0,0,0,1814,2021-01-15 19:03:31:213
-9.721,-0.17,0.402,0,0,0,1823,2021-01-15 19:03:31:222
-9.721,-0.17,0.402,0,0,0,1835,2021-01-15 19:03:31:234
-9.721,-0.17,0.402,0,0,0,1843,2021-01-15 19:03:31:242
-9.721,-0.17,0.402,0,0,0,1854,2021-01-15 19:03:31:253
-9.721,-0.17,0.402,0,0,0,1863,2021-01-15 19:03:31:262
-9.711,-0.168,0.388,0,0,0,1874,2021-01-15 19:03:31:273
-9.711,-0.168,0.388,0,0,0,1884,2021-01-15 19:03:31:283
-9.711,-0.168,0.388,0,0,0,1893,2021-01-15 19:03:31:292
-9.711,-0.168,0.388,0,0,0,1903,2021-01-15 19:03:31:302
-9.711,-0.168,0.388,0,0,0,1914,2021-01-15 19:03:31:313
-9.711,-0.168,0.388,0,0,0,1924,2021-01-15 19:03:31:323
-9.709,-0.153,0.39,0,0,0,1934,2021-01-15 19:03:31:333
-9.709,-0.153,0.39,0,0,0,1944,2021-01-15 19:03:31:343
-9.709,-0.153,0.39,0,0,0,1954,2021-01-15 19:03:31:353
-9.709,-0.153,0.39,0,0,0,1964,2021-01-15 19:03:31:363
-9.709,-0.153,0.39,0,0,0,1974,2021-01-15 19:03:31:373
-9.709,-0.153,0.39,0,0,0,1984,2021-01-15 19:03:31:383
-9.716,-0.163,0.4,0,0,0,1994,2021-01-15 19:03:31:393
-9.716,-0.163,0.4,0,0,0,2004,2021-01-15 19:03:31:403
-9.716,-0.163,0.4,0,0,0,2014,2021-01-15 19:03:31:413
-9.716,-0.163,0.4,0,0,0,2024,2021-01-15 19:03:31:423
-9.716,-0.163,0.4,0,0,0,2034,2021-01-15 19:03:31:433
-9.716,-0.163,0.4,0,0,0,2044,2021-01-15 19:03:31:443
-9.718,-0.175,0.393,0,0,0,2056,2021-01-15 19:03:31:455
-9.718,-0.175,0.393,0,0,0,2065,2021-01-15 19:03:31:464
-9.718,-0.175,0.393,0,0,0,2074,2021-01-15 19:03:31:473
-9.718,-0.175,0.393,0,0,0,2084,2021-01-15 19:03:31:483
-9.718,-0.175,0.393,0,0,0,2094,2021-01-15 19:03:31:493
-9.718,-0.175,0.393,0,0,0,2104,2021-01-15 19:03:31:503
-9.721,-0.172,0.4,0,0,0,2115,2021-01-15 19:03:31:514
-9.721,-0.172,0.4,0,0,0,2124,2021-01-15 19:03:31:523
-9.721,-0.172,0.4,0,0,0,2134,2021-01-15 19:03:31:533
-9.721,-0.172,0.4,0,0,0,2144,2021-01-15 19:03:31:543
-9.721,-0.172,0.4,0.001,0,0,2154,2021-01-15 19:03:31:553
-9.721,-0.172,0.4,0.001,0,0,2164,2021-01-15 19:03:31:563
-9.697,-0.163,0.393,0.001,0,0,2173,2021-01-15 19:03:31:572
-9.697,-0.163,0.393,0.001,0,0,2185,2021-01-15 19:03:31:584
-9.697,-0.163,0.393,0.001,0,0,2193,2021-01-15 19:03:31:592
-9.697,-0.163,0.393,0.001,0,0,2204,2021-01-15 19:03:31:603
-9.697,-0.163,0.393,0.001,0,0,2214,2021-01-15 19:03:31:613
-9.697,-0.163,0.393,0.001,0,0,2223,2021-01-15 19:03:31:622
-9.723,-0.156,0.4,0.001,0,0,2234,2021-01-15 19:03:31:633
-9.723,-0.156,0.4,0.001,0,0,2244,2021-01-15 19:03:31:643
-9.723,-0.156,0.4,0.001,0,0,2254,2021-01-15 19:03:31:653
-9.723,-0.156,0.4,0.001,0,0,2263,2021-01-15 19:03:31:662
-9.723,-0.156,0.4,-0.001,0,0,2274,2021-01-15 19:03:31:673
-9.723,-0.156,0.4,-0.001,0,0,2284,2021-01-15 19:03:31:683
-9.723,-0.175,0.39,-0.001,0,0,2293,2021-01-15 19:03:31:692
-9.723,-0.175,0.39,-0.001,0,0,2304,2021-01-15 19:03:31:703
-9.723,-0.175,0.39,-0.001,0,0,2314,2021-01-15 19:03:31:713
-9.723,-0.175,0.39,-0.001,0,0,2323,2021-01-15 19:03:31:722
-9.723,-0.175,0.39,-0.001,0,0,2334,2021-01-15 19:03:31:733
-9.723,-0.175,0.39,-0.001,0,0,2344,2021-01-15 19:03:31:743
-9.711,-0.158,0.395,-0.001,0,0,2354,2021-01-15 19:03:31:753
-9.711,-0.158,0.395,-0.001,0,0,2364,2021-01-15 19:03:31:763
-9.711,-0.158,0.395,-0.001,0,0,2374,2021-01-15 19:03:31:773
-9.711,-0.158,0.395,-0.001,0,0,2384,2021-01-15 19:03:31:783
-9.711,-0.158,0.395,0,0,0,2393,2021-01-15 19:03:31:792
-9.711,-0.158,0.395,0,0,0,2405,2021-01-15 19:03:31:804
-9.714,-0.172,0.388,0,0,0,2414,2021-01-15 19:03:31:813
-9.714,-0.172,0.388,0,0,0,2424,2021-01-15 19:03:31:823
-9.714,-0.172,0.388,0,0,0,2435,2021-01-15 19:03:31:834
-9.714,-0.172,0.388,0,0,0,2444,2021-01-15 19:03:31:843
-9.714,-0.172,0.388,0,0,0,2454,2021-01-15 19:03:31:853
-9.714,-0.172,0.388,0,0,0,2463,2021-01-15 19:03:31:862
-9.733,-0.177,0.4,0,0,0,2473,2021-01-15 19:03:31:872
-9.733,-0.177,0.4,0,0,0,2484,2021-01-15 19:03:31:883
-9.733,-0.177,0.4,0,0,0,2495,2021-01-15 19:03:31:894
-9.733,-0.177,0.4,0,0,0,2504,2021-01-15 19:03:31:903
-9.733,-0.177,0.4,0,0.001,0,2513,2021-01-15 19:03:31:912
-9.733,-0.177,0.4,0,0.001,0,2524,2021-01-15 19:03:31:923
-9.723,-0.18,0.385,0,0.001,0,2534,2021-01-15 19:03:31:933
-9.723,-0.18,0.385,0,0.001,0,2544,2021-01-15 19:03:31:943
-9.723,-0.18,0.385,0,0.001,0,2554,2021-01-15 19:03:31:953
-9.723,-0.18,0.385,0,0.001,0,2564,2021-01-15 19:03:31:963
-9.723,-0.18,0.385,0,0.001,0,2573,2021-01-15 19:03:31:972
-9.723,-0.18,0.385,0,0.001,0,2584,2021-01-15 19:03:31:983
-9.735,-0.172,0.395,0,0.001,0,2594,2021-01-15 19:03:31:993
-9.735,-0.172,0.395,0,0.001,0,2604,2021-01-15 19:03:32:003
-9.735,-0.172,0.395,0,0.001,0,2615,2021-01-15 19:03:32:014
-9.735,-0.172,0.395,0,0.001,0,2625,2021-01-15 19:03:32:024
-9.735,-0.172,0.395,-0.001,0,0,2634,2021-01-15 19:03:32:033
-9.735,-0.172,0.395,-0.001,0,0,2644,2021-01-15 19:03:32:043
-9.726,-0.168,0.402,-0.001,0,0,2654,2021-01-15 19:03:32:053
-9.726,-0.168,0.402,-0.001,0,0,2665,2021-01-15 19:03:32:064
-9.726,-0.168,0.402,-0.001,0,0,2674,2021-01-15 19:03:32:073
-9.726,-0.168,0.402,-0.001,0,0,2684,2021-01-15 19:03:32:083
-9.726,-0.168,0.402,-0.001,0,0,2694,2021-01-15 19:03:32:093
-9.726,-0.168,0.402,-0.001,0,0,2704,2021-01-15 19:03:32:103
-9.721,-0.165,0.383,-0.001,0,0,2714,2021-01-15 19:03:32:113
-9.721,-0.165,0.383,-0.001,0,0,2724,2021-01-15 19:03:32:123
-9.721,-0.165,0.383,-0.001,0,0,2734,2021-01-15 19:03:32:133
-9.721,-0.165,0.383,-0.001,0,0,2744,2021-01-15 19:03:32:143
-9.721,-0.165,0.383,0,0.001,0,2754,2021-01-15 19:03:32:153
-9.721,-0.165,0.383,0,0.001,0,2764,2021-01-15 19:03:32:163
-9.714,-0.168,0.378,0,0.001,0,2774,2021-01-15 19:03:32:173
-9.714,-0.168,0.378,0,0.001,0,2784,2021-01-15 19:03:32:183
-9.714,-0.168,0.378,0,0.001,0,2794,2021-01-15 19:03:32:193
-9.714,-0.168,0.378,0,0.001,0,2804,2021-01-15 19:03:32:203
-9.714,-0.168,0.378,0,0.001,0,2813,2021-01-15 19:03:32:212
-9.714,-0.168,0.378,0,0.001,0,2825,2021-01-15 19:03:32:224
-9.718,-0.172,0.4,0,0.001,0,2834,2021-01-15 19:03:32:233
-9.718,-0.172,0.4,0,0.001,0,2844,2021-01-15 19:03:32:243
-9.718,-0.172,0.4,0,0.001,0,2854,2021-01-15 19:03:32:253
-9.718,-0.172,0.4,0,0.001,0,2864,2021-01-15 19:03:32:263
-9.718,-0.172,0.4,0,0,0,2874,2021-01-15 19:03:32:273
-9.718,-0.172,0.4,0,0,0,2883,2021-01-15 19:03:32:282
-9.709,-0.175,0.395,0,0,0,2894,2021-01-15 19:03:32:293
-9.709,-0.175,0.395,0,0,0,2904,2021-01-15 19:03:32:303
-9.709,-0.175,0.395,0,0,0,2914,2021-01-15 19:03:32:313
-9.709,-0.175,0.395,0,0,0,2924,2021-01-15 19:03:32:323
-9.709,-0.175,0.395,0,0,0,2933,2021-01-15 19:03:32:332
-9.709,-0.175,0.395,0,0,0,2944,2021-01-15 19:03:32:343
-9.738,-0.182,0.39,0,0,0,2954,2021-01-15 19:03:32:353
-9.738,-0.182,0.39,0,0,0,2964,2021-01-15 19:03:32:363
-9.738,-0.182,0.39,0,0,0,2974,2021-01-15 19:03:32:373
-9.738,-0.182,0.39,0,0,0,2984,2021-01-15 19:03:32:383
-9.738,-0.182,0.39,0,0.001,0,2993,2021-01-15 19:03:32:392
-9.738,-0.182,0.39,0,0.001,0,3003,2021-01-15 19:03:32:402
-9.721,-0.158,0.381,0,0.001,0,3014,2021-01-15 19:03:32:413
-9.721,-0.158,0.381,0,0.001,0,3024,2021-01-15 19:03:32:423
-9.721,-0.158,0.381,0,0.001,0,3034,2021-01-15 19:03:32:433
-9.721,-0.158,0.381,0,0.001,0,3044,2021-01-15 19:03:32:443
-9.721,-0.158,0.381,0,0.001,0,3054,2021-01-15 19:03:32:453
-9.721,-0.158,0.381,0,0,0,3064,2021-01-15 19:03:32:463
-9.716,-0.17,0.39,0,0,0,3073,2021-01-15 19:03:32:472
-9.716,-0.17,0.39,0,0,0,3084,2021-01-15 19:03:32:483
-9.716,-0.17,0.39,0,0,0,3094,2021-01-15 19:03:32:493
-9.716,-0.17,0.39,0,0,0,3104,2021-01-15 19:03:32:503
-9.716,-0.17,0.39,0,0,0,3114,2021-01-15 19:03:32:513
-9.716,-0.17,0.39,0,0,0,3124,2021-01-15 19:03:32:523
-9.709,-0.165,0.383,0,0,0,3134,2021-01-15 19:03:32:533
-9.709,-0.165,0.383,0,0,0,3144,2021-01-15 19:03:32:543
-9.709,-0.165,0.383,0,0,0,3154,2021-01-15 19:03:32:553
-9.709,-0.165,0.383,0,0,0,3163,2021-01-15 19:03:32:562
-9.709,-0.165,0.383,0,0.001,0,3174,2021-01-15 19:03:32:573
-9.709,-0.165,0.383,0,0.001,0,3183,2021-01-15 19:03:32:582
-9.723,-0.151,0.393,0,0.001,0,3194,2021-01-15 19:03:32:593
-9.723,-0.151,0.393,0,0.001,0,3203,2021-01-15 19:03:32:602
-9.723,-0.151,0.393,0,0.001,0,3214,2021-01-15 19:03:32:613
-9.723,-0.151,0.393,0,0.001,0,3223,2021-01-15 19:03:32:622
-9.723,-0.151,0.393,0,0.001,0,3234,2021-01-15 19:03:32:633
-9.723,-0.151,0.393,0,0.001,0,3244,2021-01-15 19:03:32:643
-9.714,-0.175,0.4,0,0.001,0,3254,2021-01-15 19:03:32:653
-9.714,-0.175,0.4,0,0.001,0,3264,2021-01-15 19:03:32:663
-9.714,-0.175,0.4,0,0.001,0,3274,2021-01-15 19:03:32:673
-9.714,-0.175,0.4,0,0.001,0,3284,2021-01-15 19:03:32:683
-9.714,-0.175,0.4,0,0.001,0,3294,2021-01-15 19:03:32:693
-9.714,-0.175,0.4,0,0.001,0,3304,2021-01-15 19:03:32:703
-9.733,-0.16,0.381,0,0.001,0,3314,2021-01-15 19:03:32:713
-9.733,-0.16,0.381,0,0.001,0,3324,2021-01-15 19:03:32:723
-9.733,-0.16,0.381,0,0.001,0,3334,2021-01-15 19:03:32:733
-9.733,-0.16,0.381,0,0.001,0,3344,2021-01-15 19:03:32:743
-9.733,-0.16,0.381,0,0.001,0,3354,2021-01-15 19:03:32:753
-9.733,-0.16,0.381,0,0.001,0,3364,2021-01-15 19:03:32:763
-9.718,-0.17,0.395,0,0.001,0,3373,2021-01-15 19:03:32:772
-9.718,-0.17,0.395,0,0.001,0,3385,2021-01-15 19:03:32:784
-9.718,-0.17,0.395,0,0.001,0,3393,2021-01-15 19:03:32:792
-9.718,-0.17,0.395,0,0.001,0,3404,2021-01-15 19:03:32:803
-9.718,-0.17,0.395,0,0,0,3414,2021-01-15 19:03:32:813
-9.718,-0.17,0.395,0,0,0,3423,2021-01-15 19:03:32:822
-9.716,-0.177,0.393,0,0,0,3434,2021-01-15 19:03:32:833
-9.716,-0.177,0.393,0,0,0,3443,2021-01-15 19:03:32:842
-9.716,-0.177,0.393,0,0,0,3454,2021-01-15 19:03:32:853
-9.716,-0.177,0.393,0,0,0,3463,2021-01-15 19:03:32:862
-9.716,-0.177,0.393,0,0,0,3474,2021-01-15 19:03:32:873
-9.716,-0.177,0.393,0,0,0,3484,2021-01-15 19:03:32:883
-9.718,-0.153,0.381,0,0,0,3493,2021-01-15 19:03:32:892
-9.718,-0.153,0.381,0,0,0,3504,2021-01-15 19:03:32:903
-9.718,-0.153,0.381,0,0,0,3513,2021-01-15 19:03:32:912
-9.718,-0.153,0.381,0,0,0,3524,2021-01-15 19:03:32:923
-9.718,-0.153,0.381,0,0,0,3534,2021-01-15 19:03:32:933
-9.718,-0.153,0.381,0,0,0,3543,2021-01-15 19:03:32:942
-9.718,-0.163,0.405,0,0,0,3554,2021-01-15 19:03:32:953
-9.718,-0.163,0.405,0,0,0,3565,2021-01-15 19:03:32:964
-9.718,-0.163,0.405,0,0,0,3573,2021-01-15 19:03:32:972
-9.718,-0.163,0.405,0,0,0,3584,2021-01-15 19:03:32:983
-9.718,-0.163,0.405,0,0,0,3594,2021-01-15 19:03:32:993
-9.718,-0.163,0.405,0,0,0,3604,2021-01-15 19:03:33:003
-9.721,-0.165,0.388,0,0,0,3614,2021-01-15 19:03:33:013
-9.721,-0.165,0.388,0,0,0,3624,2021-01-15 19:03:33:023
-9.721,-0.165,0.388,0,0,0,3636,2021-01-15 19:03:33:035
-9.721,-0.165,0.388,0,0,0,3644,2021-01-15 19:03:33:043
-9.721,-0.165,0.388,0,0,0,3654,2021-01-15 19:03:33:053
-9.721,-0.165,0.388,0,0,0,3664,2021-01-15 19:03:33:063
-9.714,-0.168,0.4,0,0,0,3674,2021-01-15 19:03:33:073
-9.714,-0.168,0.4,0,0,0,3684,2021-01-15 19:03:33:083
-9.714,-0.168,0.4,0,0,0,3694,2021-01-15 19:03:33:093
-9.714,-0.168,0.4,0,0,0,3704,2021-01-15 19:03:33:103
-9.714,-0.168,0.4,0,0,0,3714,2021-01-15 19:03:33:113
-9.714,-0.168,0.4,0,0,0,3724,2021-01-15 19:03:33:123
-9.711,-0.17,0.385,0,0,0,3734,2021-01-15 19:03:33:133
-9.711,-0.17,0.385,0,0,0,3744,2021-01-15 19:03:33:143
-9.711,-0.17,0.385,0,0,0,3754,2021-01-15 19:03:33:153
-9.711,-0.17,0.385,0,0,0,3764,2021-01-15 19:03:33:163
-9.711,-0.17,0.385,0,0,0,3774,2021-01-15 19:03:33:173
-9.711,-0.17,0.385,0,0,0,3784,2021-01-15 19:03:33:183
-9.726,-0.182,0.39,0,0,0,3794,2021-01-15 19:03:33:193
-9.726,-0.182,0.39,0,0,0,3805,2021-01-15 19:03:33:204
-9.726,-0.182,0.39,0,0,0,3813,2021-01-15 19:03:33:212
-9.726,-0.182,0.39,0,0,0,3824,2021-01-15 19:03:33:223
-9.726,-0.182,0.39,0,0,0,3834,2021-01-15 19:03:33:233
-9.726,-0.182,0.39,0,0,0,3844,2021-01-15 19:03:33:243
-9.714,-0.158,0.381,0,0,0,3854,2021-01-15 19:03:33:253
-9.714,-0.158,0.381,0,0,0,3864,2021-01-15 19:03:33:263
-9.714,-0.158,0.381,0,0,0,3874,2021-01-15 19:03:33:273
-9.714,-0.158,0.381,0,0,0,3884,2021-01-15 19:03:33:283
-9.714,-0.158,0.381,0,0,0,3897,2021-01-15 19:03:33:296
-9.714,-0.158,0.381,0,0,0,3904,2021-01-15 19:03:33:303
-9.709,-0.165,0.393,0,0,0,3914,2021-01-15 19:03:33:313
-9.709,-0.165,0.393,0,0,0,3924,2021-01-15 19:03:33:323
-9.709,-0.165,0.393,0,0,0,3934,2021-01-15 19:03:33:333
-9.709,-0.165,0.393,0,0,0,3944,2021-01-15 19:03:33:343
-9.709,-0.165,0.393,0,0,0,3955,2021-01-15 19:03:33:354
-9.709,-0.165,0.393,0,0,0,3964,2021-01-15 19:03:33:363
-9.718,-0.175,0.4,0,0,0,3974,2021-01-15 19:03:33:373
-9.718,-0.175,0.4,0,0,0,3984,2021-01-15 19:03:33:383
-9.718,-0.175,0.4,0,0,0,3994,2021-01-15 19:03:33:393
-9.718,-0.175,0.4,0,0,0,4004,2021-01-15 19:03:33:403
-9.718,-0.175,0.4,0,0,0,4014,2021-01-15 19:03:33:413
-9.718,-0.175,0.4,0,0,0,4024,2021-01-15 19:03:33:423
-9.709,-0.163,0.39,0,0,0,4034,2021-01-15 19:03:33:433
-9.709,-0.163,0.39,0,0,0,4044,2021-01-15 19:03:33:443
-9.709,-0.163,0.39,0,0,0,4054,2021-01-15 19:03:33:453
-9.709,-0.163,0.39,0,0,0,4064,2021-01-15 19:03:33:463
-9.709,-0.163,0.39,0,0,0,4073,2021-01-15 19:03:33:472
-9.709,-0.163,0.39,0,0,0,4084,2021-01-15 19:03:33:483
-9.716,-0.156,0.374,0,0,0,4094,2021-01-15 19:03:33:493
-9.716,-0.156,0.374,0,0,0,4104,2021-01-15 19:03:33:503
-9.716,-0.156,0.374,0,0,0,4114,2021-01-15 19:03:33:513
-9.716,-0.156,0.374,0,0,0,4124,2021-01-15 19:03:33:523
-9.716,-0.156,0.374,0,0.001,0,4134,2021-01-15 19:03:33:533
-9.716,-0.156,0.374,0,0.001,0,4144,2021-01-15 19:03:33:543
-9.726,-0.158,0.397,0,0.001,0,4153,2021-01-15 19:03:33:552
-9.726,-0.158,0.397,0,0.001,0,4164,2021-01-15 19:03:33:563
-9.726,-0.158,0.397,0,0.001,0,4173,2021-01-15 19:03:33:572
-9.726,-0.158,0.397,0,0.001,0,4184,2021-01-15 19:03:33:583
-9.726,-0.158,0.397,0,0.001,0,4194,2021-01-15 19:03:33:593
-9.726,-0.158,0.397,0,0.001,0,4205,2021-01-15 19:03:33:604
-9.723,-0.165,0.402,0,0.001,0,4215,2021-01-15 19:03:33:614
-9.723,-0.165,0.402,0,0.001,0,4224,2021-01-15 19:03:33:623
-9.723,-0.165,0.402,0,0.001,0,4233,2021-01-15 19:03:33:632
-9.723,-0.165,0.402,0,0.001,0,4244,2021-01-15 19:03:33:643
-9.723,-0.165,0.402,0,0,0,4254,2021-01-15 19:03:33:653
-9.723,-0.165,0.402,0,0,0,4263,2021-01-15 19:03:33:662
-9.728,-0.156,0.393,0,0,0,4274,2021-01-15 19:03:33:673
-9.728,-0.156,0.393,0,0,0,4284,2021-01-15 19:03:33:683
-9.728,-0.156,0.393,0,0,0,4294,2021-01-15 19:03:33:693
-9.728,-0.156,0.393,0,0,0,4304,2021-01-15 19:03:33:703
-9.728,-0.156,0.393,0,0,0,4314,2021-01-15 19:03:33:713
-9.728,-0.156,0.393,0,0,0,4324,2021-01-15 19:03:33:723
-9.733,-0.16,0.388,0,0,0,4333,2021-01-15 19:03:33:732
-9.733,-0.16,0.388,0,0,0,4344,2021-01-15 19:03:33:743
-9.733,-0.16,0.388,0,0,0,4354,2021-01-15 19:03:33:753
-9.733,-0.16,0.388,0,0,0,4363,2021-01-15 19:03:33:762
-9.733,-0.16,0.388,0,0,0,4374,2021-01-15 19:03:33:773
-9.733,-0.16,0.388,0,0,0,4384,2021-01-15 19:03:33:783
-9.723,-0.168,0.381,0,0,0,4394,2021-01-15 19:03:33:793
-9.723,-0.168,0.381,0,0,0,4407,2021-01-15 19:03:33:806
-9.723,-0.168,0.381,0,0,0,4414,2021-01-15 19:03:33:813
-9.723,-0.168,0.381,0,0,0,4424,2021-01-15 19:03:33:823
-9.723,-0.168,0.381,0,0,0,4434,2021-01-15 19:03:33:833
-9.723,-0.168,0.381,0,0,0,4444,2021-01-15 19:03:33:843
-9.718,-0.165,0.381,0,0,0,4454,2021-01-15 19:03:33:853
-9.718,-0.165,0.381,0,0,0,4464,2021-01-15 19:03:33:863
-9.718,-0.165,0.381,0,0,0,4474,2021-01-15 19:03:33:873
-9.718,-0.165,0.381,0,0,0,4484,2021-01-15 19:03:33:883
-9.718,-0.165,0.381,0,0,0,4495,2021-01-15 19:03:33:894
-9.718,-0.165,0.381,0,0,0,4504,2021-01-15 19:03:33:903
-9.721,-0.17,0.393,0,0,0,4513,2021-01-15 19:03:33:912
-9.721,-0.17,0.393,0,0,0,4523,2021-01-15 19:03:33:922
-9.721,-0.17,0.393,0,0,0,4534,2021-01-15 19:03:33:933
-9.721,-0.17,0.393,0,0,0,4544,2021-01-15 19:03:33:943
-9.721,-0.17,0.393,0,0,0,4553,2021-01-15 19:03:33:952
-9.721,-0.17,0.393,0,0,0,4563,2021-01-15 19:03:33:962
-9.735,-0.175,0.407,0,0,0,4574,2021-01-15 19:03:33:973
-9.735,-0.175,0.407,0,0,0,4584,2021-01-15 19:03:33:983
-9.735,-0.175,0.407,0,0,0,4593,2021-01-15 19:03:33:992
-9.735,-0.175,0.407,0,0,0,4605,2021-01-15 19:03:34:004
-9.735,-0.175,0.407,0,0,0,4615,2021-01-15 19:03:34:014
-9.735,-0.175,0.407,0,0,0,4624,2021-01-15 19:03:34:023
-9.714,-0.158,0.397,0,0,0,4634,2021-01-15 19:03:34:033
-9.714,-0.158,0.397,0,0,0,4644,2021-01-15 19:03:34:043
-9.714,-0.158,0.397,0,0,0,4654,2021-01-15 19:03:34:053
-9.714,-0.158,0.397,0,0,0,4664,2021-01-15 19:03:34:063
-9.714,-0.158,0.397,0,0,0,4674,2021-01-15 19:03:34:073
-9.714,-0.158,0.397,0,0,0,4685,2021-01-15 19:03:34:084
-9.718,-0.16,0.405,0,0,0,4694,2021-01-15 19:03:34:093
-9.718,-0.16,0.405,0,0,0,4704,2021-01-15 19:03:34:103
-9.718,-0.16,0.405,0,0,0,4714,2021-01-15 19:03:34:113
-9.718,-0.16,0.405,0,0,0,4724,2021-01-15 19:03:34:123
-9.718,-0.16,0.405,0,0,0,4739,2021-01-15 19:03:34:138
-9.718,-0.16,0.405,0,0,0,4745,2021-01-15 19:03:34:144
-9.704,-0.163,0.4,0,0,0,4754,2021-01-15 19:03:34:153
-9.704,-0.163,0.4,0,0,0,4763,2021-01-15 19:03:34:162
-9.704,-0.163,0.4,0,0,0,4774,2021-01-15 19:03:34:173
-9.704,-0.163,0.4,0,0,0,4784,2021-01-15 19:03:34:183
-9.704,-0.163,0.4,0,0,0,4796,2021-01-15 19:03:34:195
-9.704,-0.163,0.4,0,0,0,4804,2021-01-15 19:03:34:203
-9.73,-0.168,0.39,0,0,0,4814,2021-01-15 19:03:34:213
-9.73,-0.168,0.39,0,0,0,4824,2021-01-15 19:03:34:223
-9.73,-0.168,0.39,0,0,0,4833,2021-01-15 19:03:34:232
-9.73,-0.168,0.39,0,0,0,4843,2021-01-15 19:03:34:242
-9.73,-0.168,0.39,0,0,0,4855,2021-01-15 19:03:34:254
-9.73,-0.168,0.39,0,0,0,4864,2021-01-15 19:03:34:263
-9.716,-0.172,0.378,0,0,0,4874,2021-01-15 19:03:34:273
-9.716,-0.172,0.378,0,0,0,4884,2021-01-15 19:03:34:283
-9.716,-0.172,0.378,0,0,0,4894,2021-01-15 19:03:34:293
-9.716,-0.172,0.378,0,0,0,4904,2021-01-15 19:03:34:303
-9.716,-0.172,0.378,0,0,0,4914,2021-01-15 19:03:34:313
-9.716,-0.172,0.378,0,0,0,4925,2021-01-15 19:03:34:324
-9.718,-0.172,0.402,0,0,0,4933,2021-01-15 19:03:34:332
-9.718,-0.172,0.402,0,0,0,4944,2021-01-15 19:03:34:343
-9.718,-0.172,0.402,0,0,0,4955,2021-01-15 19:03:34:354
-9.718,-0.172,0.402,0,0,0,4964,2021-01-15 19:03:34:363
-9.718,-0.172,0.402,0.001,0,0,4975,2021-01-15 19:03:34:374
-9.718,-0.172,0.402,0.001,0,0,4985,2021-01-15 19:03:34:384
-9.738,-0.165,0.395,0.001,0,0,4994,2021-01-15 19:03:34:393
-9.738,-0.165,0.395,0.001,0,0,5004,2021-01-15 19:03:34:403
-9.738,-0.165,0.395,0.001,0,0,5014,2021-01-15 19:03:34:413
-9.738,-0.165,0.395,0.001,0,0,5024,2021-01-15 19:03:34:423
-9.738,-0.165,0.395,0.001,0,0,5034,2021-01-15 19:03:34:433
-9.738,-0.165,0.395,0.001,0,0,5044,2021-01-15 19:03:34:443
-9.714,-0.177,0.385,0.001,0,0,5054,2021-01-15 19:03:34:453
-9.714,-0.177,0.385,0.001,0,0,5064,2021-01-15 19:03:34:463
-9.714,-0.177,0.385,0.001,0,0,5074,2021-01-15 19:03:34:473
-9.714,-0.177,0.385,0.001,0,0,5084,2021-01-15 19:03:34:483
-9.714,-0.177,0.385,0,0,0,5094,2021-01-15 19:03:34:493
-9.714,-0.177,0.385,0,0,0,5103,2021-01-15 19:03:34:502
-9.711,-0.168,0.39,0,0,0,5114,2021-01-15 19:03:34:513
-9.711,-0.168,0.39,0,0,0,5124,2021-01-15 19:03:34:523
-9.711,-0.168,0.39,0,0,0,5133,2021-01-15 19:03:34:532
-9.711,-0.168,0.39,0,0,0,5144,2021-01-15 19:03:34:543
-9.711,-0.168,0.39,0,0,0,5154,2021-01-15 19:03:34:553
-9.711,-0.168,0.39,0,0,0,5164,2021-01-15 19:03:34:563
-9.714,-0.165,0.397,0,0,0,5174,2021-01-15 19:03:34:573
-9.714,-0.165,0.397,0,0,0,5184,2021-01-15 19:03:34:583
-9.714,-0.165,0.397,0,0,0,5194,2021-01-15 19:03:34:593
-9.714,-0.165,0.397,0,0,0,5204,2021-01-15 19:03:34:603
-9.714,-0.165,0.397,0,0.001,0,5214,2021-01-15 19:03:34:613
-9.714,-0.165,0.397,0,0.001,0,5224,2021-01-15 19:03:34:623
-9.73,-0.163,0.397,0,0.001,0,5234,2021-01-15 19:03:34:633
-9.73,-0.163,0.397,0,0.001,0,5243,2021-01-15 19:03:34:642
-9.73,-0.163,0.397,0,0.001,0,5254,2021-01-15 19:03:34:653
-9.73,-0.163,0.397,0,0.001,0,5264,2021-01-15 19:03:34:663
-9.73,-0.163,0.397,0,0.001,0,5274,2021-01-15 19:03:34:673
-9.73,-0.163,0.397,0,0.001,0,5284,2021-01-15 19:03:34:683
-9.735,-0.153,0.407,0,0.001,0,5294,2021-01-15 19:03:34:693
-9.735,-0.153,0.407,0,0.001,0,5304,2021-01-15 19:03:34:703
-9.735,-0.153,0.407,0,0.001,0,5313,2021-01-15 19:03:34:712
-9.735,-0.153,0.407,0,0.001,0,5325,2021-01-15 19:03:34:724
-9.735,-0.153,0.407,0,0,0,5334,2021-01-15 19:03:34:733
-9.735,-0.153,0.407,0,0,0,5344,2021-01-15 19:03:34:743
-9.723,-0.175,0.4,0,0,0,5354,2021-01-15 19:03:34:753
-9.723,-0.175,0.4,0,0,0,5364,2021-01-15 19:03:34:763
-9.723,-0.175,0.4,0,0,0,5374,2021-01-15 19:03:34:773
-9.723,-0.175,0.4,0,0,0,5384,2021-01-15 19:03:34:783
-9.723,-0.175,0.4,0,0,0,5394,2021-01-15 19:03:34:793
-9.723,-0.175,0.4,0,0,0,5404,2021-01-15 19:03:34:803
-9.726,-0.163,0.383,0,0,0,5413,2021-01-15 19:03:34:812
-9.726,-0.163,0.383,0,0,0,5424,2021-01-15 19:03:34:823
-9.726,-0.163,0.383,0,0,0,5434,2021-01-15 19:03:34:833
-9.726,-0.163,0.383,0,0,0,5444,2021-01-15 19:03:34:843
-9.726,-0.163,0.383,0,0,0,5454,2021-01-15 19:03:34:853
-9.726,-0.163,0.383,0,0,0,5464,2021-01-15 19:03:34:863
-9.723,-0.172,0.397,0,0,0,5473,2021-01-15 19:03:34:872
-9.723,-0.172,0.397,0,0,0,5484,2021-01-15 19:03:34:883
-9.723,-0.172,0.397,0,0,0,5494,2021-01-15 19:03:34:893
-9.723,-0.172,0.397,0,0,0,5504,2021-01-15 19:03:34:903
-9.723,-0.172,0.397,0,0,0,5514,2021-01-15 19:03:34:913
-9.723,-0.172,0.397,0,0,0,5524,2021-01-15 19:03:34:923
-9.716,-0.158,0.395,0,0,0,5533,2021-01-15 19:03:34:932
-9.716,-0.158,0.395,0,0,0,5544,2021-01-15 19:03:34:943
-9.716,-0.158,0.395,0,0,0,5554,2021-01-15 19:03:34:953
-9.716,-0.158,0.395,0,0,0,5564,2021-01-15 19:03:34:963
-9.716,-0.158,0.395,0,0,0,5574,2021-01-15 19:03:34:973
-9.716,-0.158,0.395,0,0,0,5584,2021-01-15 19:03:34:983
-9.718,-0.175,0.397,0,0,0,5594,2021-01-15 19:03:34:993
-9.718,-0.175,0.397,0,0,0,5604,2021-01-15 19:03:35:003
-9.718,-0.175,0.397,0,0,0,5614,2021-01-15 19:03:35:013
-9.718,-0.175,0.397,0,0,0,5625,2021-01-15 19:03:35:024
-9.718,-0.175,0.397,0,0,0,5634,2021-01-15 19:03:35:033
-9.718,-0.175,0.397,0,0,0,5644,2021-01-15 19:03:35:043
-9.697,-0.16,0.395,0,0,0,5654,2021-01-15 19:03:35:053
-9.697,-0.16,0.395,0,0,0,5663,2021-01-15 19:03:35:062
-9.697,-0.16,0.395,0,0,0,5674,2021-01-15 19:03:35:073
-9.697,-0.16,0.395,0,0,0,5684,2021-01-15 19:03:35:083
-9.697,-0.16,0.395,0,0.001,0,5694,2021-01-15 19:03:35:093
-9.697,-0.16,0.395,0,0.001,0,5705,2021-01-15 19:03:35:104
-9.728,-0.165,0.393,0,0.001,0,5714,2021-01-15 19:03:35:113
-9.728,-0.165,0.393,0,0.001,0,5724,2021-01-15 19:03:35:123
-9.728,-0.165,0.393,0,0.001,0,5734,2021-01-15 19:03:35:133
-9.728,-0.165,0.393,0,0.001,0,5744,2021-01-15 19:03:35:143
-9.728,-0.165,0.393,0,0.001,0,5754,2021-01-15 19:03:35:153
-9.728,-0.165,0.393,0,0.001,0,5764,2021-01-15 19:03:35:163
-9.716,-0.158,0.371,0,0.001,0,5774,2021-01-15 19:03:35:173
-9.716,-0.158,0.371,0,0.001,0,5784,2021-01-15 19:03:35:183
-9.716,-0.158,0.371,0,0.001,0,5794,2021-01-15 19:03:35:193
-9.716,-0.158,0.371,0,0.001,0,5803,2021-01-15 19:03:35:202
-9.716,-0.158,0.371,0,0.001,0,5814,2021-01-15 19:03:35:213
-9.716,-0.158,0.371,0,0.001,0,5824,2021-01-15 19:03:35:223
-9.718,-0.17,0.383,0,0.001,0,5833,2021-01-15 19:03:35:232
-9.718,-0.17,0.383,0,0.001,0,5843,2021-01-15 19:03:35:242
-9.718,-0.17,0.383,0,0.001,0,5853,2021-01-15 19:03:35:252
-9.718,-0.17,0.383,0,0.001,0,5864,2021-01-15 19:03:35:263
-9.718,-0.17,0.383,0,0.001,0,5877,2021-01-15 19:03:35:276
-9.718,-0.17,0.383,0,0.001,0,5884,2021-01-15 19:03:35:283
-9.709,-0.165,0.381,0,0.001,0,5895,2021-01-15 19:03:35:294
-9.709,-0.165,0.381,0,0.001,0,5904,2021-01-15 19:03:35:303
-9.709,-0.165,0.381,0,0.001,0,5914,2021-01-15 19:03:35:313
-9.709,-0.165,0.381,0,0.001,0,5924,2021-01-15 19:03:35:323
-9.709,-0.165,0.381,0,0,0,5933,2021-01-15 19:03:35:332
-9.709,-0.165,0.381,0,0,0,5944,2021-01-15 19:03:35:343
-9.711,-0.168,0.405,0,0,0,5954,2021-01-15 19:03:35:353
-9.711,-0.168,0.405,0,0,0,5965,2021-01-15 19:03:35:364
-9.711,-0.168,0.405,0,0,0,5975,2021-01-15 19:03:35:374
-9.711,-0.168,0.405,0,0,0,5985,2021-01-15 19:03:35:384
-9.711,-0.168,0.405,0,0,0,5994,2021-01-15 19:03:35:393
-9.711,-0.168,0.405,0,0,0,6004,2021-01-15 19:03:35:403
-9.716,-0.163,0.39,0,0,0,6013,2021-01-15 19:03:35:412
-9.716,-0.163,0.39,0,0,0,6024,2021-01-15 19:03:35:423
-9.716,-0.163,0.39,0,0,0,6034,2021-01-15 19:03:35:433
-9.716,-0.163,0.39,0,0,0,6044,2021-01-15 19:03:35:443
-9.716,-0.163,0.39,0,0,0,6053,2021-01-15 19:03:35:452
-9.716,-0.163,0.39,0,0,0,6065,2021-01-15 19:03:35:464
-9.709,-0.156,0.395,0,0,0,6081,2021-01-15 19:03:35:480
-9.709,-0.156,0.395,0,0,0,6084,2021-01-15 19:03:35:483
-9.709,-0.156,0.395,0,0,0,6096,2021-01-15 19:03:35:495
-9.709,-0.156,0.395,0,0,0,6103,2021-01-15 19:03:35:502
-9.709,-0.156,0.395,0,0,0,6114,2021-01-15 19:03:35:513
-9.709,-0.156,0.395,0,0,0,6124,2021-01-15 19:03:35:523
-9.726,-0.163,0.393,0,0,0,6134,2021-01-15 19:03:35:533
-9.726,-0.163,0.393,0,0,0,6144,2021-01-15 19:03:35:543
-9.726,-0.163,0.393,0,0,0,6154,2021-01-15 19:03:35:553
-9.726,-0.163,0.393,0,0,0,6164,2021-01-15 19:03:35:563
-9.726,-0.163,0.393,0,0,0,6175,2021-01-15 19:03:35:574
-9.726,-0.163,0.393,0,0,0,6184,2021-01-15 19:03:35:583
-9.714,-0.156,0.393,0,0,0,6194,2021-01-15 19:03:35:593
-9.714,-0.156,0.393,0,0,0,6205,2021-01-15 19:03:35:604
-9.714,-0.156,0.393,0,0,0,6214,2021-01-15 19:03:35:613
-9.714,-0.156,0.393,0,0,0,6224,2021-01-15 19:03:35:623
-9.714,-0.156,0.393,0,0,0,6234,2021-01-15 19:03:35:633
-9.714,-0.156,0.393,0,0,0,6244,2021-01-15 19:03:35:643
-9.721,-0.163,0.385,0,0,0,6254,2021-01-15 19:03:35:653
-9.721,-0.163,0.385,0,0,0,6264,2021-01-15 19:03:35:663
-9.721,-0.163,0.385,0,0,0,6274,2021-01-15 19:03:35:673
-9.721,-0.163,0.385,0,0,0,6284,2021-01-15 19:03:35:683
-9.721,-0.163,0.385,0,0,0,6294,2021-01-15 19:03:35:693
-9.721,-0.163,0.385,0,0,0,6304,2021-01-15 19:03:35:703
-9.718,-0.158,0.397,0,0,0,6314,2021-01-15 19:03:35:713
-9.718,-0.158,0.397,0,0,0,6325,2021-01-15 19:03:35:724
-9.718,-0.158,0.397,0,0,0,6334,2021-01-15 19:03:35:733
-9.718,-0.158,0.397,0,0,0,6344,2021-01-15 19:03:35:743
-9.718,-0.158,0.397,0,0,0,6354,2021-01-15 19:03:35:753
-9.718,-0.158,0.397,0,0,0,6364,2021-01-15 19:03:35:763
-9.718,-0.17,0.374,0,0,0,6375,2021-01-15 19:03:35:774
-9.718,-0.17,0.374,0,0,0,6384,2021-01-15 19:03:35:783
-9.718,-0.17,0.374,0,0,0,6394,2021-01-15 19:03:35:793
-9.718,-0.17,0.374,0,0,0,6404,2021-01-15 19:03:35:803
-9.718,-0.17,0.374,0,0,0,6413,2021-01-15 19:03:35:812
-9.718,-0.17,0.374,0,0,0,6423,2021-01-15 19:03:35:822
-9.714,-0.172,0.4,0,0,0,6434,2021-01-15 19:03:35:833
-9.714,-0.172,0.4,0,0,0,6445,2021-01-15 19:03:35:844
-9.714,-0.172,0.4,0,0,0,6453,2021-01-15 19:03:35:852
-9.714,-0.172,0.4,0,0,0,6464,2021-01-15 19:03:35:863
-9.714,-0.172,0.4,0,0,0,6474,2021-01-15 19:03:35:873
-9.714,-0.172,0.4,0,0,0,6484,2021-01-15 19:03:35:883
-9.726,-0.153,0.395,0,0,0,6494,2021-01-15 19:03:35:893
-9.726,-0.153,0.395,0,0,0,6505,2021-01-15 19:03:35:904
-9.726,-0.153,0.395,0,0,0,6514,2021-01-15 19:03:35:913
-9.726,-0.153,0.395,0,0,0,6524,2021-01-15 19:03:35:923
-9.726,-0.153,0.395,0,0,0,6536,2021-01-15 19:03:35:935
-9.726,-0.153,0.395,0,0,0,6545,2021-01-15 19:03:35:944
-9.721,-0.156,0.385,0,0,0,6554,2021-01-15 19:03:35:953
-9.721,-0.156,0.385,0,0,0,6564,2021-01-15 19:03:35:963
-9.721,-0.156,0.385,0,0,0,6575,2021-01-15 19:03:35:974
-9.721,-0.156,0.385,0,0,0,6584,2021-01-15 19:03:35:983
-9.721,-0.156,0.385,0,0,0,6594,2021-01-15 19:03:35:993
-9.721,-0.156,0.385,0,0,0,6604,2021-01-15 19:03:36:003
-9.714,-0.172,0.393,0,0,0,6615,2021-01-15 19:03:36:014
-9.714,-0.172,0.393,0,0,0,6626,2021-01-15 19:03:36:025
-9.714,-0.172,0.393,0,0,0,6634,2021-01-15 19:03:36:033
-9.714,-0.172,0.393,0,0,0,6645,2021-01-15 19:03:36:044
-9.714,-0.172,0.393,0,0,0,6655,2021-01-15 19:03:36:054
-9.714,-0.172,0.393,0,0,0,6664,2021-01-15 19:03:36:063
-9.721,-0.16,0.383,0,0,0,6675,2021-01-15 19:03:36:074
-9.721,-0.16,0.383,0,0,0,6684,2021-01-15 19:03:36:083
-9.721,-0.16,0.383,0,0,0,6694,2021-01-15 19:03:36:093
-9.721,-0.16,0.383,0,0,0,6704,2021-01-15 19:03:36:103
-9.721,-0.16,0.383,0,0,0,6714,2021-01-15 19:03:36:113
-9.721,-0.16,0.383,0,0,0,6724,2021-01-15 19:03:36:123
-9.711,-0.177,0.385,0,0,0,6734,2021-01-15 19:03:36:133
-9.711,-0.177,0.385,0,0,0,6745,2021-01-15 19:03:36:144
-9.711,-0.177,0.385,0,0,0,6753,2021-01-15 19:03:36:152
-9.711,-0.177,0.385,0,0,0,6764,2021-01-15 19:03:36:163
-9.711,-0.177,0.385,0,0,0,6775,2021-01-15 19:03:36:174
-9.711,-0.177,0.385,0,0,0,6784,2021-01-15 19:03:36:183
-9.711,-0.163,0.4,0,0,0,6794,2021-01-15 19:03:36:193
-9.711,-0.163,0.4,0,0,0,6804,2021-01-15 19:03:36:203
-9.711,-0.163,0.4,0,0,0,6814,2021-01-15 19:03:36:213
-9.711,-0.163,0.4,0,0,0,6824,2021-01-15 19:03:36:223
-9.711,-0.163,0.4,0,0,0,6835,2021-01-15 19:03:36:234
-9.711,-0.163,0.4,0,0,0,6844,2021-01-15 19:03:36:243
-9.718,-0.16,0.417,0,0,0,6854,2021-01-15 19:03:36:253
-9.718,-0.16,0.417,0,0,0,6864,2021-01-15 19:03:36:263
-9.718,-0.16,0.417,0,0,0,6875,2021-01-15 19:03:36:274
-9.718,-0.16,0.417,0,0,0,6883,2021-01-15 19:03:36:282
-9.718,-0.16,0.417,0,0,0,6894,2021-01-15 19:03:36:293
-9.718,-0.16,0.417,0,0,0,6904,2021-01-15 19:03:36:303
-9.706,-0.16,0.397,0,0,0,6914,2021-01-15 19:03:36:313
-9.706,-0.16,0.397,0,0,0,6924,2021-01-15 19:03:36:323
-9.706,-0.16,0.397,0,0,0,6934,2021-01-15 19:03:36:333
-9.706,-0.16,0.397,0,0,0,6944,2021-01-15 19:03:36:343
-9.706,-0.16,0.397,0,0,0,6954,2021-01-15 19:03:36:353
-9.706,-0.16,0.397,0,0,0,6963,2021-01-15 19:03:36:362
-9.726,-0.172,0.397,0,0,0,6975,2021-01-15 19:03:36:374
-9.726,-0.172,0.397,0,0,0,6984,2021-01-15 19:03:36:383
-9.726,-0.172,0.397,0,0,0,6995,2021-01-15 19:03:36:394
-9.726,-0.172,0.397,0,0,0,7004,2021-01-15 19:03:36:403
-9.726,-0.172,0.397,0,0,0,7014,2021-01-15 19:03:36:413
-9.726,-0.172,0.397,0,0,0,7025,2021-01-15 19:03:36:424
-9.728,-0.168,0.402,0,0,0,7034,2021-01-15 19:03:36:433
-9.728,-0.168,0.402,0,0,0,7044,2021-01-15 19:03:36:443
-9.728,-0.168,0.402,0,0,0,7054,2021-01-15 19:03:36:453
-9.728,-0.168,0.402,0,0,0,7064,2021-01-15 19:03:36:463
-9.728,-0.168,0.402,0,0,0,7074,2021-01-15 19:03:36:473
-9.728,-0.168,0.402,0,0,0,7084,2021-01-15 19:03:36:483
-9.709,-0.17,0.388,0,0,0,7094,2021-01-15 19:03:36:493
-9.709,-0.17,0.388,0,0,0,7104,2021-01-15 19:03:36:503
-9.709,-0.17,0.388,0,0,0,7114,2021-01-15 19:03:36:513
-9.709,-0.17,0.388,0,0,0,7124,2021-01-15 19:03:36:523
-9.709,-0.17,0.388,0,0,0,7136,2021-01-15 19:03:36:535
-9.709,-0.17,0.388,0,0,0,7143,2021-01-15 19:03:36:542
-9.711,-0.16,0.374,0,0,0,7154,2021-01-15 19:03:36:553
-9.711,-0.16,0.374,0,0,0,7163,2021-01-15 19:03:36:562
-9.711,-0.16,0.374,0,0,0,7175,2021-01-15 19:03:36:574
-9.711,-0.16,0.374,0,0,0,7184,2021-01-15 19:03:36:583
-9.711,-0.16,0.374,0,0,0,7194,2021-01-15 19:03:36:593
-9.711,-0.16,0.374,0,0,0,7204,2021-01-15 19:03:36:603
-9.716,-0.18,0.383,0,0,0,7214,2021-01-15 19:03:36:613
-9.716,-0.18,0.383,0,0,0,7224,2021-01-15 19:03:36:623
-9.716,-0.18,0.383,0,0,0,7233,2021-01-15 19:03:36:632
-9.716,-0.18,0.383,0,0,0,7245,2021-01-15 19:03:36:644
-9.716,-0.18,0.383,0,0,0,7254,2021-01-15 19:03:36:653
-9.716,-0.18,0.383,0,0,0,7266,2021-01-15 19:03:36:665
-9.723,-0.163,0.39,0,0,0,7276,2021-01-15 19:03:36:675
-9.723,-0.163,0.39,0,0,0,7284,2021-01-15 19:03:36:683
-9.723,-0.163,0.39,0,0,0,7294,2021-01-15 19:03:36:693
-9.723,-0.163,0.39,0,0,0,7304,2021-01-15 19:03:36:703
-9.723,-0.163,0.39,0,0,0,7314,2021-01-15 19:03:36:713
-9.723,-0.163,0.39,0,0,0,7325,2021-01-15 19:03:36:724
-9.726,-0.16,0.405,0,0,0,7334,2021-01-15 19:03:36:733
-9.726,-0.16,0.405,0,0,0,7344,2021-01-15 19:03:36:743
-9.726,-0.16,0.405,0,0,0,7354,2021-01-15 19:03:36:753
-9.726,-0.16,0.405,0,0,0,7364,2021-01-15 19:03:36:763
-9.726,-0.16,0.405,0,0,0,7374,2021-01-15 19:03:36:773
-9.726,-0.16,0.405,0,0,0,7384,2021-01-15 19:03:36:783
-9.716,-0.17,0.397,0,0,0,7394,2021-01-15 19:03:36:793
-9.716,-0.17,0.397,0,0,0,7404,2021-01-15 19:03:36:803
-9.716,-0.17,0.397,0,0,0,7415,2021-01-15 19:03:36:814
-9.716,-0.17,0.397,0,0,0,7425,2021-01-15 19:03:36:824
-9.716,-0.17,0.397,0,0,0,7434,2021-01-15 19:03:36:833
-9.716,-0.17,0.397,0,0,0,7446,2021-01-15 19:03:36:845
-9.709,-0.168,0.369,0,0,0,7454,2021-01-15 19:03:36:853
-9.709,-0.168,0.369,0,0,0,7464,2021-01-15 19:03:36:863
-9.709,-0.168,0.369,0,0,0,7474,2021-01-15 19:03:36:873
-9.709,-0.168,0.369,0,0,0,7484,2021-01-15 19:03:36:883
-9.709,-0.168,0.369,0,0,0,7494,2021-01-15 19:03:36:893
-9.709,-0.168,0.369,0,0,0,7505,2021-01-15 19:03:36:904
-9.726,-0.172,0.388,0,0,0,7514,2021-01-15 19:03:36:913
-9.726,-0.172,0.388,0,0,0,7524,2021-01-15 19:03:36:923
-9.726,-0.172,0.388,0,0,0,7534,2021-01-15 19:03:36:933
-9.726,-0.172,0.388,0,0,0,7544,2021-01-15 19:03:36:943
-9.726,-0.172,0.388,0,0,0,7554,2021-01-15 19:03:36:953
-9.726,-0.172,0.388,0,0,0,7564,2021-01-15 19:03:36:963
-9.726,-0.17,0.395,0,0,0,7574,2021-01-15 19:03:36:973
-9.726,-0.17,0.395,0,0,0,7584,2021-01-15 19:03:36:983
-9.726,-0.17,0.395,0,0,0,7594,2021-01-15 19:03:36:993
-9.726,-0.17,0.395,0,0,0,7604,2021-01-15 19:03:37:003
-9.726,-0.17,0.395,0,0,0,7614,2021-01-15 19:03:37:013
-9.726,-0.17,0.395,0,0,0,7624,2021-01-15 19:03:37:023
-9.723,-0.172,0.388,0,0,0,7634,2021-01-15 19:03:37:033
-9.723,-0.172,0.388,0,0,0,7645,2021-01-15 19:03:37:044
-9.723,-0.172,0.388,0,0,0,7653,2021-01-15 19:03:37:052
-9.723,-0.172,0.388,0,0,0,7667,2021-01-15 19:03:37:066
-9.723,-0.172,0.388,0,0,0,7674,2021-01-15 19:03:37:073
-9.723,-0.172,0.388,0,0,0,7684,2021-01-15 19:03:37:083
-9.728,-0.16,0.397,0,0,0,7694,2021-01-15 19:03:37:093
-9.728,-0.16,0.397,0,0,0,7704,2021-01-15 19:03:37:103
-9.728,-0.16,0.397,0,0,0,7714,2021-01-15 19:03:37:113
-9.728,-0.16,0.397,0,0,0,7724,2021-01-15 19:03:37:123
-9.728,-0.16,0.397,0,0,0,7734,2021-01-15 19:03:37:133
-9.728,-0.16,0.397,0,0,0,7745,2021-01-15 19:03:37:144
-9.723,-0.153,0.385,0,0,0,7754,2021-01-15 19:03:37:153
-9.723,-0.153,0.385,0,0,0,7764,2021-01-15 19:03:37:163
-9.723,-0.153,0.385,0,0,0,7774,2021-01-15 19:03:37:173
-9.723,-0.153,0.385,0,0,0,7783,2021-01-15 19:03:37:182
-9.723,-0.153,0.385,0,0,0,7794,2021-01-15 19:03:37:193
-9.723,-0.153,0.385,0,0,0,7804,2021-01-15 19:03:37:203
-9.718,-0.163,0.383,0,0,0,7814,2021-01-15 19:03:37:213
-9.718,-0.163,0.383,0,0,0,7824,2021-01-15 19:03:37:223
-9.718,-0.163,0.383,0,0,0,7834,2021-01-15 19:03:37:233
-9.718,-0.163,0.383,0,0,0,7844,2021-01-15 19:03:37:243
-9.718,-0.163,0.383,0,0,0,7855,2021-01-15 19:03:37:254
-9.718,-0.163,0.383,0,0,0,7866,2021-01-15 19:03:37:265
-9.685,-0.172,0.381,0,0,0,7873,2021-01-15 19:03:37:272
-9.685,-0.172,0.381,0,0,0,7884,2021-01-15 19:03:37:283
-9.685,-0.172,0.381,0,0,0,7894,2021-01-15 19:03:37:293
-9.685,-0.172,0.381,0,0,0,7904,2021-01-15 19:03:37:303
-9.685,-0.172,0.381,0,0,0,7915,2021-01-15 19:03:37:314
-9.685,-0.172,0.381,0,0,0,7925,2021-01-15 19:03:37:324
-9.738,-0.177,0.407,0,0,0,7934,2021-01-15 19:03:37:333
-9.738,-0.177,0.407,0,0,0,7944,2021-01-15 19:03:37:343
-9.738,-0.177,0.407,0,0,0,7953,2021-01-15 19:03:37:352
-9.738,-0.177,0.407,0,0,0,7964,2021-01-15 19:03:37:363
-9.738,-0.177,0.407,0,-0.001,0,7974,2021-01-15 19:03:37:373
-9.738,-0.177,0.407,0,-0.001,0,7984,2021-01-15 19:03:37:383
-9.716,-0.165,0.397,0,-0.001,0,7994,2021-01-15 19:03:37:393
-9.716,-0.165,0.397,0,-0.001,0,8003,2021-01-15 19:03:37:402
-9.716,-0.165,0.397,0,-0.001,0,8015,2021-01-15 19:03:37:414
-9.716,-0.165,0.397,0,-0.001,0,8024,2021-01-15 19:03:37:423
-9.716,-0.165,0.397,0,-0.001,0,8033,2021-01-15 19:03:37:432
-9.716,-0.165,0.397,0,-0.001,0,8044,2021-01-15 19:03:37:443
-9.73,-0.163,0.388,0,-0.001,0,8054,2021-01-15 19:03:37:453
-9.73,-0.163,0.388,0,-0.001,0,8064,2021-01-15 19:03:37:463
-9.73,-0.163,0.388,0,-0.001,0,8073,2021-01-15 19:03:37:472
-9.73,-0.163,0.388,0,-0.001,0,8085,2021-01-15 19:03:37:484
-9.73,-0.163,0.388,0,0,0,8096,2021-01-15 19:03:37:495
-9.73,-0.163,0.388,0,0,0,8104,2021-01-15 19:03:37:503
-9.718,-0.163,0.397,0,0,0,8114,2021-01-15 19:03:37:513
-9.718,-0.163,0.397,0,0,0,8123,2021-01-15 19:03:37:522
-9.718,-0.163,0.397,0,0,0,8134,2021-01-15 19:03:37:533
-9.718,-0.163,0.397,0,0,0,8144,2021-01-15 19:03:37:543
-9.718,-0.163,0.397,0,0,0,8154,2021-01-15 19:03:37:553
-9.718,-0.163,0.397,0,0,0,8165,2021-01-15 19:03:37:564
-9.716,-0.168,0.407,0,0,0,8174,2021-01-15 19:03:37:573
-9.716,-0.168,0.407,0,0,0,8184,2021-01-15 19:03:37:583
-9.716,-0.168,0.407,0,0,0,8194,2021-01-15 19:03:37:593
-9.716,-0.168,0.407,0,0,0,8204,2021-01-15 19:03:37:603
-9.716,-0.168,0.407,0,0,0,8215,2021-01-15 19:03:37:614
-9.716,-0.168,0.407,0,0,0,8224,2021-01-15 19:03:37:623
-9.728,-0.16,0.407,0,0,0,8234,2021-01-15 19:03:37:633
-9.728,-0.16,0.407,0,0,0,8244,2021-01-15 19:03:37:643
-9.728,-0.16,0.407,0,0,0,8254,2021-01-15 19:03:37:653
-9.728,-0.16,0.407,0,0,0,8264,2021-01-15 19:03:37:663
-9.728,-0.16,0.407,0,0,0,8274,2021-01-15 19:03:37:673
-9.728,-0.16,0.407,0,0,0,8284,2021-01-15 19:03:37:683
-9.721,-0.175,0.378,0,0,0,8294,2021-01-15 19:03:37:693
-9.721,-0.175,0.378,0,0,0,8304,2021-01-15 19:03:37:703
-9.721,-0.175,0.378,0,0,0,8314,2021-01-15 19:03:37:713
-9.721,-0.175,0.378,0,0,0,8324,2021-01-15 19:03:37:723
-9.721,-0.175,0.378,0,0,0,8334,2021-01-15 19:03:37:733
-9.721,-0.175,0.378,0,0,0,8344,2021-01-15 19:03:37:743
-9.718,-0.168,0.366,0,0,0,8354,2021-01-15 19:03:37:753
-9.718,-0.168,0.366,0,0,0,8365,2021-01-15 19:03:37:764
-9.718,-0.168,0.366,0,0,0,8373,2021-01-15 19:03:37:772
-9.718,-0.168,0.366,0,0,0,8384,2021-01-15 19:03:37:783
-9.718,-0.168,0.366,0,0,0,8394,2021-01-15 19:03:37:793
-9.718,-0.168,0.366,0,0,0,8404,2021-01-15 19:03:37:803
-9.716,-0.168,0.407,0,0,0,8414,2021-01-15 19:03:37:813
-9.716,-0.168,0.407,0,0,0,8424,2021-01-15 19:03:37:823
-9.716,-0.168,0.407,0,0,0,8433,2021-01-15 19:03:37:832
-9.716,-0.168,0.407,0,0,0,8444,2021-01-15 19:03:37:843
-9.716,-0.168,0.407,-0.001,0,0,8455,2021-01-15 19:03:37:854
-9.716,-0.168,0.407,-0.001,0,0,8465,2021-01-15 19:03:37:864
-9.711,-0.168,0.383,-0.001,0,0,8475,2021-01-15 19:03:37:874
-9.711,-0.168,0.383,-0.001,0,0,8484,2021-01-15 19:03:37:883
-9.711,-0.168,0.383,-0.001,0,0,8495,2021-01-15 19:03:37:894
-9.711,-0.168,0.383,-0.001,0,0,8504,2021-01-15 19:03:37:903
-9.711,-0.168,0.383,-0.001,0,0,8514,2021-01-15 19:03:37:913
-9.711,-0.168,0.383,-0.001,0,0,8524,2021-01-15 19:03:37:923
-9.711,-0.175,0.4,-0.001,0,0,8534,2021-01-15 19:03:37:933
-9.711,-0.175,0.4,-0.001,0,0,8544,2021-01-15 19:03:37:943
-9.711,-0.175,0.4,-0.001,0,0,8554,2021-01-15 19:03:37:953
-9.711,-0.175,0.4,-0.001,0,0,8566,2021-01-15 19:03:37:965
-9.711,-0.175,0.4,0,0,0,8574,2021-01-15 19:03:37:973
-9.711,-0.175,0.4,0,0,0,8583,2021-01-15 19:03:37:982
-9.716,-0.177,0.393,0,0,0,8595,2021-01-15 19:03:37:994
-9.716,-0.177,0.393,0,0,0,8604,2021-01-15 19:03:38:003
-9.716,-0.177,0.393,0,0,0,8614,2021-01-15 19:03:38:013
-9.716,-0.177,0.393,0,0,0,8623,2021-01-15 19:03:38:022
-9.716,-0.177,0.393,0,0,0,8634,2021-01-15 19:03:38:033
-9.716,-0.177,0.393,0,0,0,8644,2021-01-15 19:03:38:043
-9.721,-0.172,0.397,0,0,0,8655,2021-01-15 19:03:38:054
-9.721,-0.172,0.397,0,0,0,8665,2021-01-15 19:03:38:064
-9.721,-0.172,0.397,0,0,0,8674,2021-01-15 19:03:38:073
-9.721,-0.172,0.397,0,0,0,8684,2021-01-15 19:03:38:083
-9.721,-0.172,0.397,0,0,0,8696,2021-01-15 19:03:38:095
-9.721,-0.172,0.397,0,0,0,8703,2021-01-15 19:03:38:102
-9.714,-0.156,0.4,0,0,0,8714,2021-01-15 19:03:38:113
-9.714,-0.156,0.4,0,0,0,8723,2021-01-15 19:03:38:122
-9.714,-0.156,0.4,0,0,0,8735,2021-01-15 19:03:38:134
-9.714,-0.156,0.4,0,0,0,8743,2021-01-15 19:03:38:142
-9.714,-0.156,0.4,0,0,0,8754,2021-01-15 19:03:38:153
-9.714,-0.156,0.4,0,0,0,8764,2021-01-15 19:03:38:163
-9.723,-0.163,0.393,0,0,0,8775,2021-01-15 19:03:38:174
-9.723,-0.163,0.393,0,0,0,8784,2021-01-15 19:03:38:183
-9.723,-0.163,0.393,0,0,0,8794,2021-01-15 19:03:38:193
-9.723,-0.163,0.393,0,0,0,8804,2021-01-15 19:03:38:203
-9.723,-0.163,0.393,0,0,0,8814,2021-01-15 19:03:38:213
-9.723,-0.163,0.393,0,0,0,8823,2021-01-15 19:03:38:222
-9.711,-0.153,0.374,0,0,0,8834,2021-01-15 19:03:38:233
-9.711,-0.153,0.374,0,0,0,8844,2021-01-15 19:03:38:243
-9.711,-0.153,0.374,0,0,0,8854,2021-01-15 19:03:38:253
-9.711,-0.153,0.374,0,0,0,8863,2021-01-15 19:03:38:262
-9.711,-0.153,0.374,0,0,0,8874,2021-01-15 19:03:38:273
-9.711,-0.153,0.374,0,0,0,8884,2021-01-15 19:03:38:283
-9.716,-0.163,0.395,0,0,0,8894,2021-01-15 19:03:38:293
-9.716,-0.163,0.395,0,0,0,8904,2021-01-15 19:03:38:303
-9.716,-0.163,0.395,0,0,0,8915,2021-01-15 19:03:38:314
-9.716,-0.163,0.395,0,0,0,8924,2021-01-15 19:03:38:323
-9.716,-0.163,0.395,0,0,0,8934,2021-01-15 19:03:38:333
-9.716,-0.163,0.395,0,0,0,8944,2021-01-15 19:03:38:343
-9.718,-0.17,0.39,0,0,0,8956,2021-01-15 19:03:38:355
-9.718,-0.17,0.39,0,0,0,8964,2021-01-15 19:03:38:363
-9.718,-0.17,0.39,0,0,0,8974,2021-01-15 19:03:38:373
-9.718,-0.17,0.39,0,0,0,8984,2021-01-15 19:03:38:383
-9.718,-0.17,0.39,0,0,0,8994,2021-01-15 19:03:38:393
-9.718,-0.17,0.39,0,0,0,9004,2021-01-15 19:03:38:403
-9.718,-0.153,0.4,0,0,0,9014,2021-01-15 19:03:38:413
-9.718,-0.153,0.4,0,0,0,9023,2021-01-15 19:03:38:422
-9.718,-0.153,0.4,0,0,0,9033,2021-01-15 19:03:38:432
-9.718,-0.153,0.4,0,0,0,9043,2021-01-15 19:03:38:442
-9.718,-0.153,0.4,0,0,0,9054,2021-01-15 19:03:38:453
-9.718,-0.153,0.4,0,0,0,9064,2021-01-15 19:03:38:463
-9.721,-0.16,0.395,0,0,0,9074,2021-01-15 19:03:38:473
-9.721,-0.16,0.395,0,0,0,9083,2021-01-15 19:03:38:482
-9.721,-0.16,0.395,0,0,0,9094,2021-01-15 19:03:38:493
-9.721,-0.16,0.395,0,0,0,9104,2021-01-15 19:03:38:503
-9.721,-0.16,0.395,0,0,0,9114,2021-01-15 19:03:38:513
-9.721,-0.16,0.395,0,0,0,9124,2021-01-15 19:03:38:523
-9.721,-0.168,0.407,0,0,0,9135,2021-01-15 19:03:38:534
-9.721,-0.168,0.407,0,0,0,9144,2021-01-15 19:03:38:543
-9.721,-0.168,0.407,0,0,0,9154,2021-01-15 19:03:38:553
-9.721,-0.168,0.407,0,0,0,9164,2021-01-15 19:03:38:563
-9.721,-0.168,0.407,-0.001,0,0,9174,2021-01-15 19:03:38:573
-9.721,-0.168,0.407,-0.001,0,0,9184,2021-01-15 19:03:38:583
-9.709,-0.168,0.39,-0.001,0,0,9195,2021-01-15 19:03:38:594
-9.709,-0.168,0.39,-0.001,0,0,9204,2021-01-15 19:03:38:603
-9.709,-0.168,0.39,-0.001,0,0,9215,2021-01-15 19:03:38:614
-9.709,-0.168,0.39,-0.001,0,0,9224,2021-01-15 19:03:38:623
-9.709,-0.168,0.39,-0.001,0,0,9234,2021-01-15 19:03:38:633
-9.709,-0.168,0.39,-0.001,0,0,9244,2021-01-15 19:03:38:643
-9.721,-0.148,0.393,-0.001,0,0,9254,2021-01-15 19:03:38:653
-9.721,-0.148,0.393,-0.001,0,0,9265,2021-01-15 19:03:38:664
-9.721,-0.148,0.393,-0.001,0,0,9273,2021-01-15 19:03:38:672
-9.721,-0.148,0.393,-0.001,0,0,9284,2021-01-15 19:03:38:683
-9.721,-0.148,0.393,0,0,0,9294,2021-01-15 19:03:38:693
-9.721,-0.148,0.393,0,0,0,9304,2021-01-15 19:03:38:703
-9.699,-0.187,0.381,0,0,0,9314,2021-01-15 19:03:38:713
-9.699,-0.187,0.381,0,0,0,9323,2021-01-15 19:03:38:722
-9.699,-0.187,0.381,0,0,0,9334,2021-01-15 19:03:38:733
-9.699,-0.187,0.381,0,0,0,9344,2021-01-15 19:03:38:743
-9.699,-0.187,0.381,0,0,0,9353,2021-01-15 19:03:38:752
-9.699,-0.187,0.381,0,0,0,9365,2021-01-15 19:03:38:764
-9.709,-0.177,0.405,0,0,0,9374,2021-01-15 19:03:38:773
-9.709,-0.177,0.405,0,0,0,9385,2021-01-15 19:03:38:784
-9.709,-0.177,0.405,0,0,0,9394,2021-01-15 19:03:38:793
-9.709,-0.177,0.405,0,0,0,9405,2021-01-15 19:03:38:804
-9.709,-0.177,0.405,0,0,0,9414,2021-01-15 19:03:38:813
-9.709,-0.177,0.405,0,0,0,9424,2021-01-15 19:03:38:823
-9.726,-0.17,0.395,0,0,0,9435,2021-01-15 19:03:38:834
-9.726,-0.17,0.395,0,0,0,9444,2021-01-15 19:03:38:843
-9.726,-0.17,0.395,0,0,0,9454,2021-01-15 19:03:38:853
-9.726,-0.17,0.395,0,0,0,9464,2021-01-15 19:03:38:863
-9.726,-0.17,0.395,0,0,0,9474,2021-01-15 19:03:38:873
-9.726,-0.17,0.395,0,0,0,9484,2021-01-15 19:03:38:883
-9.709,-0.156,0.405,0,0,0,9494,2021-01-15 19:03:38:893
-9.709,-0.156,0.405,0,0,0,9504,2021-01-15 19:03:38:903
-9.709,-0.156,0.405,0,0,0,9514,2021-01-15 19:03:38:913
-9.709,-0.156,0.405,0,0,0,9524,2021-01-15 19:03:38:923
-9.709,-0.156,0.405,0,0.001,0,9535,2021-01-15 19:03:38:934
-9.709,-0.156,0.405,0,0.001,0,9544,2021-01-15 19:03:38:943
-9.706,-0.148,0.414,0,0.001,0,9554,2021-01-15 19:03:38:953
-9.706,-0.148,0.414,0,0.001,0,9564,2021-01-15 19:03:38:963
-9.706,-0.148,0.414,0,0.001,0,9574,2021-01-15 19:03:38:973
-9.706,-0.148,0.414,0,0.001,0,9584,2021-01-15 19:03:38:983
-9.706,-0.148,0.414,0,0.001,0,9593,2021-01-15 19:03:38:992
-9.706,-0.148,0.414,0,0.001,0,9604,2021-01-15 19:03:39:003
-9.723,-0.175,0.4,0,0.001,0,9615,2021-01-15 19:03:39:014
-9.723,-0.175,0.4,0,0.001,0,9625,2021-01-15 19:03:39:024
-9.723,-0.175,0.4,0,0.001,0,9634,2021-01-15 19:03:39:033
-9.723,-0.175,0.4,0,0.001,0,9644,2021-01-15 19:03:39:043
-9.723,-0.175,0.4,0,0.001,0,9654,2021-01-15 19:03:39:053
-9.723,-0.175,0.4,0,0.001,0,9665,2021-01-15 19:03:39:064
-9.726,-0.165,0.419,0,0.001,0,9673,2021-01-15 19:03:39:072
-9.726,-0.165,0.419,0,0.001,0,9684,2021-01-15 19:03:39:083
-9.726,-0.165,0.419,0,0.001,0,9693,2021-01-15 19:03:39:092
-9.726,-0.165,0.419,0,0.001,0,9703,2021-01-15 19:03:39:102
-9.726,-0.165,0.419,0,0.001,0,9715,2021-01-15 19:03:39:114
-9.726,-0.165,0.419,0,0.001,0,9724,2021-01-15 19:03:39:123
-9.718,-0.163,0.402,0,0.001,0,9735,2021-01-15 19:03:39:134
-9.718,-0.163,0.402,0,0.001,0,9744,2021-01-15 19:03:39:143
-9.718,-0.163,0.402,0,0.001,0,9754,2021-01-15 19:03:39:153
-9.718,-0.163,0.402,0,0.001,0,9765,2021-01-15 19:03:39:164
-9.718,-0.163,0.402,0,-0.001,0,9774,2021-01-15 19:03:39:173
-9.718,-0.163,0.402,0,-0.001,0,9784,2021-01-15 19:03:39:183
-9.718,-0.168,0.417,0,-0.001,0,9794,2021-01-15 19:03:39:193
-9.718,-0.168,0.417,0,-0.001,0,9804,2021-01-15 19:03:39:203
-9.718,-0.168,0.417,0,-0.001,0,9815,2021-01-15 19:03:39:214
-9.718,-0.168,0.417,0,-0.001,0,9824,2021-01-15 19:03:39:223
-9.718,-0.168,0.417,0,-0.001,0,9834,2021-01-15 19:03:39:233
-9.718,-0.168,0.417,0,-0.001,0,9844,2021-01-15 19:03:39:243
-9.73,-0.17,0.409,0,-0.001,0,9853,2021-01-15 19:03:39:252
-9.73,-0.17,0.409,0,-0.001,0,9864,2021-01-15 19:03:39:263
-9.73,-0.17,0.409,0,-0.001,0,9873,2021-01-15 19:03:39:272
-9.73,-0.17,0.409,0,-0.001,0,9885,2021-01-15 19:03:39:284
-9.73,-0.17,0.409,0,0,0,9893,2021-01-15 19:03:39:292
-9.73,-0.17,0.409,0,0,0,9904,2021-01-15 19:03:39:303
-9.723,-0.175,0.421,0,0,0,9913,2021-01-15 19:03:39:312
-9.723,-0.175,0.421,0,0,0,9924,2021-01-15 19:03:39:323
-9.723,-0.175,0.421,0,0,0,9934,2021-01-15 19:03:39:333
-9.723,-0.175,0.421,0,0,0,9944,2021-01-15 19:03:39:343
-9.723,-0.175,0.421,0,0,0,9954,2021-01-15 19:03:39:353
-9.723,-0.175,0.421,0,0,0,9964,2021-01-15 19:03:39:363
-9.716,-0.163,0.402,0,0,0,9973,2021-01-15 19:03:39:372
-9.716,-0.163,0.402,0,0,0,9984,2021-01-15 19:03:39:383
-9.716,-0.163,0.402,0,0,0,9994,2021-01-15 19:03:39:393
-9.716,-0.163,0.402,0,0,0,10004,2021-01-15 19:03:39:403
-9.716,-0.163,0.402,0,0,0,10014,2021-01-15 19:03:39:413
-9.716,-0.163,0.402,0,0,0,10024,2021-01-15 19:03:39:423
-9.706,-0.168,0.397,0,0,0,10033,2021-01-15 19:03:39:432
-9.706,-0.168,0.397,0,0,0,10043,2021-01-15 19:03:39:442
-9.706,-0.168,0.397,0,0,0,10054,2021-01-15 19:03:39:453
-9.706,-0.168,0.397,0,0,0,10064,2021-01-15 19:03:39:463
-9.706,-0.168,0.397,0,0,0,10074,2021-01-15 19:03:39:473
-9.706,-0.168,0.397,0,0,0,10084,2021-01-15 19:03:39:483
-9.726,-0.172,0.407,0,0,0,10094,2021-01-15 19:03:39:493
-9.726,-0.172,0.407,0,0,0,10104,2021-01-15 19:03:39:503
-9.726,-0.172,0.407,0,0,0,10113,2021-01-15 19:03:39:512
-9.726,-0.172,0.407,0,0,0,10124,2021-01-15 19:03:39:523
-9.726,-0.172,0.407,0,0,0,10134,2021-01-15 19:03:39:533
-9.726,-0.172,0.407,0,0,0,10144,2021-01-15 19:03:39:543
-9.735,-0.16,0.397,0,0,0,10154,2021-01-15 19:03:39:553
-9.735,-0.16,0.397,0,0,0,10164,2021-01-15 19:03:39:563
-9.735,-0.16,0.397,0,0,0,10174,2021-01-15 19:03:39:573
-9.735,-0.16,0.397,0,0,0,10184,2021-01-15 19:03:39:583
-9.735,-0.16,0.397,0,0,0,10194,2021-01-15 19:03:39:593
-9.735,-0.16,0.397,0,0,0,10204,2021-01-15 19:03:39:603
-9.709,-0.172,0.409,0,0,0,10214,2021-01-15 19:03:39:613
-9.709,-0.172,0.409,0,0,0,10225,2021-01-15 19:03:39:624
-9.709,-0.172,0.409,0,0,0,10234,2021-01-15 19:03:39:633
-9.709,-0.172,0.409,0,0,0,10244,2021-01-15 19:03:39:643
-9.709,-0.172,0.409,0,0,0,10254,2021-01-15 19:03:39:653
-9.709,-0.172,0.409,0,0,0,10264,2021-01-15 19:03:39:663
-9.723,-0.148,0.388,0,0,0,10274,2021-01-15 19:03:39:673
-9.723,-0.148,0.388,0,0,0,10285,2021-01-15 19:03:39:684
-9.723,-0.148,0.388,0,0,0,10295,2021-01-15 19:03:39:694
-9.723,-0.148,0.388,0,0,0,10304,2021-01-15 19:03:39:703
-9.723,-0.148,0.388,0,0,0,10314,2021-01-15 19:03:39:713
-9.723,-0.148,0.388,0,0,0,10324,2021-01-15 19:03:39:723
-9.714,-0.168,0.39,0,0,0,10335,2021-01-15 19:03:39:734
-9.714,-0.168,0.39,0,0,0,10344,2021-01-15 19:03:39:743
-9.714,-0.168,0.39,0,0,0,10354,2021-01-15 19:03:39:753
-9.714,-0.168,0.39,0,0,0,10364,2021-01-15 19:03:39:763
-9.714,-0.168,0.39,0,-0.001,0,10374,2021-01-15 19:03:39:773
-9.714,-0.168,0.39,0,-0.001,0,10384,2021-01-15 19:03:39:783
-9.714,-0.17,0.412,0,-0.001,0,10394,2021-01-15 19:03:39:793
-9.714,-0.17,0.412,0,-0.001,0,10404,2021-01-15 19:03:39:803
-9.714,-0.17,0.412,0,-0.001,0,10414,2021-01-15 19:03:39:813
-9.714,-0.17,0.412,0,-0.001,0,10425,2021-01-15 19:03:39:824
-9.714,-0.17,0.412,0,-0.001,0,10434,2021-01-15 19:03:39:833
-9.714,-0.17,0.412,0,-0.001,0,10444,2021-01-15 19:03:39:843
-9.711,-0.158,0.4,0,-0.001,0,10454,2021-01-15 19:03:39:853
-9.711,-0.158,0.4,0,-0.001,0,10464,2021-01-15 19:03:39:863
-9.711,-0.158,0.4,0,-0.001,0,10474,2021-01-15 19:03:39:873
-9.711,-0.158,0.4,0,-0.001,0,10484,2021-01-15 19:03:39:883
-9.711,-0.158,0.4,0,-0.001,0,10496,2021-01-15 19:03:39:895
-9.711,-0.158,0.4,0,-0.001,0,10503,2021-01-15 19:03:39:902
-9.709,-0.175,0.376,0,-0.001,0,10514,2021-01-15 19:03:39:913
-9.709,-0.175,0.376,0,-0.001,0,10524,2021-01-15 19:03:39:923
-9.709,-0.175,0.376,0,-0.001,0,10534,2021-01-15 19:03:39:933
-9.709,-0.175,0.376,0,-0.001,0,10544,2021-01-15 19:03:39:943
-9.709,-0.175,0.376,0,-0.001,0,10554,2021-01-15 19:03:39:953
-9.709,-0.175,0.376,0,-0.001,0,10564,2021-01-15 19:03:39:963
-9.735,-0.158,0.4,0,-0.001,0,10574,2021-01-15 19:03:39:973
-9.735,-0.158,0.4,0,-0.001,0,10584,2021-01-15 19:03:39:983
-9.735,-0.158,0.4,0,-0.001,0,10594,2021-01-15 19:03:39:993
-9.735,-0.158,0.4,0,-0.001,0,10603,2021-01-15 19:03:40:002
-9.735,-0.158,0.4,0,0,0,10614,2021-01-15 19:03:40:013
-9.735,-0.158,0.4,0,0,0,10624,2021-01-15 19:03:40:023
-9.721,-0.175,0.402,0,0,0,10634,2021-01-15 19:03:40:033
-9.721,-0.175,0.402,0,0,0,10644,2021-01-15 19:03:40:043
-9.721,-0.175,0.402,0,0,0,10655,2021-01-15 19:03:40:054
-9.721,-0.175,0.402,0,0,0,10664,2021-01-15 19:03:40:063
-9.721,-0.175,0.402,0,0,0,10674,2021-01-15 19:03:40:073
-9.721,-0.175,0.402,0,0,0,10684,2021-01-15 19:03:40:083
-9.728,-0.177,0.397,0,0,0,10694,2021-01-15 19:03:40:093
-9.728,-0.177,0.397,0,0,0,10704,2021-01-15 19:03:40:103
-9.728,-0.177,0.397,0,0,0,10714,2021-01-15 19:03:40:113
-9.728,-0.177,0.397,0,0,0,10724,2021-01-15 19:03:40:123
-9.728,-0.177,0.397,0,0,0,10734,2021-01-15 19:03:40:133
-9.728,-0.177,0.397,0,0,0,10744,2021-01-15 19:03:40:143
-9.718,-0.168,0.385,0,0,0,10755,2021-01-15 19:03:40:154
-9.718,-0.168,0.385,0,0,0,10764,2021-01-15 19:03:40:163
-9.718,-0.168,0.385,0,0,0,10774,2021-01-15 19:03:40:173
-9.718,-0.168,0.385,0,0,0,10797,2021-01-15 19:03:40:196
-9.718,-0.168,0.385,0,0,0,10798,2021-01-15 19:03:40:197
-9.718,-0.168,0.385,0,0,0,10804,2021-01-15 19:03:40:203
-9.718,-0.172,0.393,0,0,0,10815,2021-01-15 19:03:40:214
-9.718,-0.172,0.393,0,0,0,10824,2021-01-15 19:03:40:223
-9.718,-0.172,0.393,0,0,0,10834,2021-01-15 19:03:40:233
-9.718,-0.172,0.393,0,0,0,10844,2021-01-15 19:03:40:243
-9.718,-0.172,0.393,0,0,0,10854,2021-01-15 19:03:40:253
-9.718,-0.172,0.393,0,0,0,10864,2021-01-15 19:03:40:263
-9.723,-0.175,0.393,0,0,0,10874,2021-01-15 19:03:40:273
-9.723,-0.175,0.393,0,0,0,10884,2021-01-15 19:03:40:283
-9.723,-0.175,0.393,0,0,0,10894,2021-01-15 19:03:40:293
-9.723,-0.175,0.393,0,0,0,10904,2021-01-15 19:03:40:303
-9.723,-0.175,0.393,0,0,0,10914,2021-01-15 19:03:40:313
-9.723,-0.175,0.393,0,0,0,10924,2021-01-15 19:03:40:323
-9.723,-0.172,0.407,0,0,0,10934,2021-01-15 19:03:40:333
-9.723,-0.172,0.407,0,0,0,10945,2021-01-15 19:03:40:344
-9.723,-0.172,0.407,0,0,0,10955,2021-01-15 19:03:40:354
-9.723,-0.172,0.407,0,0,0,10964,2021-01-15 19:03:40:363
-9.723,-0.172,0.407,0,0,0,10974,2021-01-15 19:03:40:373
-9.723,-0.172,0.407,0,0,0,10984,2021-01-15 19:03:40:383
-9.726,-0.18,0.383,0,0,0,10993,2021-01-15 19:03:40:392
-9.726,-0.18,0.383,0,0,0,11004,2021-01-15 19:03:40:403
-9.726,-0.18,0.383,0,0,0,11014,2021-01-15 19:03:40:413
-9.726,-0.18,0.383,0,0,0,11024,2021-01-15 19:03:40:423
-9.726,-0.18,0.383,0,0,0,11034,2021-01-15 19:03:40:433
-9.726,-0.18,0.383,0,0,0,11045,2021-01-15 19:03:40:444
-9.716,-0.158,0.395,0,0,0,11054,2021-01-15 19:03:40:453
-9.716,-0.158,0.395,0,0,0,11067,2021-01-15 19:03:40:466
-9.716,-0.158,0.395,0,0,0,11073,2021-01-15 19:03:40:472
-9.716,-0.158,0.395,0,0,0,11084,2021-01-15 19:03:40:483
-9.716,-0.158,0.395,0,0,0,11094,2021-01-15 19:03:40:493
-9.716,-0.158,0.395,0,0,0,11107,2021-01-15 19:03:40:506
-9.733,-0.172,0.369,0,0,0,11114,2021-01-15 19:03:40:513
-9.733,-0.172,0.369,0,0,0,11124,2021-01-15 19:03:40:523
-9.733,-0.172,0.369,0,0,0,11133,2021-01-15 19:03:40:532
-9.733,-0.172,0.369,0,0,0,11144,2021-01-15 19:03:40:543
-9.733,-0.172,0.369,0,0,0,11155,2021-01-15 19:03:40:554
-9.733,-0.172,0.369,0,0,0,11164,2021-01-15 19:03:40:563
-9.716,-0.18,0.385,0,0,0,11174,2021-01-15 19:03:40:573
-9.716,-0.18,0.385,0,0,0,11185,2021-01-15 19:03:40:584
-9.716,-0.18,0.385,0,0,0,11198,2021-01-15 19:03:40:597
-9.716,-0.18,0.385,0,0,0,11204,2021-01-15 19:03:40:603
-9.716,-0.18,0.385,0,-0.001,0,11214,2021-01-15 19:03:40:613
-9.716,-0.18,0.385,0,-0.001,0,11224,2021-01-15 19:03:40:623
-9.721,-0.153,0.39,0,-0.001,0,11234,2021-01-15 19:03:40:633
-9.721,-0.153,0.39,0,-0.001,0,11244,2021-01-15 19:03:40:643
-9.721,-0.153,0.39,0,-0.001,0,11254,2021-01-15 19:03:40:653
-9.721,-0.153,0.39,0,-0.001,0,11264,2021-01-15 19:03:40:663
-9.721,-0.153,0.39,0,-0.001,0,11274,2021-01-15 19:03:40:673
-9.721,-0.153,0.39,0,-0.001,0,11284,2021-01-15 19:03:40:683
-9.694,-0.177,0.381,0,-0.001,0,11294,2021-01-15 19:03:40:693
-9.694,-0.177,0.381,0,-0.001,0,11304,2021-01-15 19:03:40:703
-9.694,-0.177,0.381,0,-0.001,0,11313,2021-01-15 19:03:40:712
-9.694,-0.177,0.381,0,-0.001,0,11324,2021-01-15 19:03:40:723
-9.694,-0.177,0.381,0,0,0,11334,2021-01-15 19:03:40:733
-9.694,-0.177,0.381,0,0,0,11343,2021-01-15 19:03:40:742
-9.726,-0.165,0.405,0,0,0,11357,2021-01-15 19:03:40:756
-9.726,-0.165,0.405,0,0,0,11364,2021-01-15 19:03:40:763
-9.726,-0.165,0.405,0,0,0,11375,2021-01-15 19:03:40:774
-9.726,-0.165,0.405,0,0,0,11384,2021-01-15 19:03:40:783
-9.726,-0.165,0.405,0,0,0,11393,2021-01-15 19:03:40:792
-9.726,-0.165,0.405,0,0,0,11405,2021-01-15 19:03:40:804
-9.699,-0.156,0.412,0,0,0,11414,2021-01-15 19:03:40:813
-9.699,-0.156,0.412,0,0,0,11424,2021-01-15 19:03:40:823
-9.699,-0.156,0.412,0,0,0,11433,2021-01-15 19:03:40:832
-9.699,-0.156,0.412,0,0,0,11444,2021-01-15 19:03:40:843
-9.699,-0.156,0.412,0.001,0,0,11454,2021-01-15 19:03:40:853
-9.699,-0.156,0.412,0.001,0,0,11465,2021-01-15 19:03:40:864
-9.723,-0.187,0.383,0.001,0,0,11474,2021-01-15 19:03:40:873
-9.723,-0.187,0.383,0.001,0,0,11484,2021-01-15 19:03:40:883
-9.723,-0.187,0.383,0.001,0,0,11495,2021-01-15 19:03:40:894
-9.723,-0.187,0.383,0.001,0,0,11505,2021-01-15 19:03:40:904
-9.723,-0.187,0.383,0.001,0,0,11514,2021-01-15 19:03:40:913
-9.723,-0.187,0.383,0.001,0,0,11523,2021-01-15 19:03:40:922
-9.723,-0.172,0.395,0.001,0,0,11534,2021-01-15 19:03:40:933
-9.723,-0.172,0.395,0.001,0,0,11547,2021-01-15 19:03:40:946
-9.723,-0.172,0.395,0.001,0,0,11554,2021-01-15 19:03:40:953
-9.723,-0.172,0.395,0.001,0,0,11564,2021-01-15 19:03:40:963
-9.723,-0.172,0.395,0.001,0,0,11575,2021-01-15 19:03:40:974
-9.73,-0.175,0.402,0,0,0,11584,2021-01-15 19:03:40:983
-9.73,-0.175,0.402,0,0,0,11594,2021-01-15 19:03:40:993
-9.73,-0.175,0.402,0,0,0,11604,2021-01-15 19:03:41:003
-9.73,-0.175,0.402,0,0,0,11614,2021-01-15 19:03:41:013
-9.73,-0.175,0.402,0,0,0,11624,2021-01-15 19:03:41:023
-9.73,-0.175,0.402,0,0,0,11634,2021-01-15 19:03:41:033
-9.73,-0.175,0.402,0,0,0,11644,2021-01-15 19:03:41:043
-9.726,-0.17,0.397,0,0,0,11655,2021-01-15 19:03:41:054
-9.726,-0.17,0.397,0,0,0,11664,2021-01-15 19:03:41:063
-9.726,-0.17,0.397,0,0,0,11674,2021-01-15 19:03:41:073
-9.726,-0.17,0.397,0,0,0,11684,2021-01-15 19:03:41:083
-9.726,-0.17,0.397,0,-0.001,0,11695,2021-01-15 19:03:41:094
-9.726,-0.17,0.397,0,-0.001,0,11704,2021-01-15 19:03:41:103
-9.726,-0.165,0.381,0,-0.001,0,11716,2021-01-15 19:03:41:115
-9.726,-0.165,0.381,0,-0.001,0,11724,2021-01-15 19:03:41:123
-9.726,-0.165,0.381,0,-0.001,0,11734,2021-01-15 19:03:41:133
-9.726,-0.165,0.381,0,-0.001,0,11744,2021-01-15 19:03:41:143
-9.726,-0.165,0.381,0,-0.001,0,11754,2021-01-15 19:03:41:153
-9.726,-0.165,0.381,0,-0.001,0,11764,2021-01-15 19:03:41:163
-9.721,-0.18,0.4,0,-0.001,0,11773,2021-01-15 19:03:41:172
-9.721,-0.18,0.4,0,-0.001,0,11784,2021-01-15 19:03:41:183
-9.721,-0.18,0.4,0,-0.001,0,11793,2021-01-15 19:03:41:192
-9.721,-0.18,0.4,0,-0.001,0,11805,2021-01-15 19:03:41:204
-9.721,-0.18,0.4,-0.001,0,0,11814,2021-01-15 19:03:41:213
-9.721,-0.18,0.4,-0.001,0,0,11824,2021-01-15 19:03:41:223
-9.74,-0.151,0.393,-0.001,0,0,11835,2021-01-15 19:03:41:234
-9.74,-0.151,0.393,-0.001,0,0,11844,2021-01-15 19:03:41:243
-9.74,-0.151,0.393,-0.001,0,0,11855,2021-01-15 19:03:41:254
-9.74,-0.151,0.393,-0.001,0,0,11863,2021-01-15 19:03:41:262
-9.74,-0.151,0.393,-0.001,0,0,11875,2021-01-15 19:03:41:274
-9.74,-0.151,0.393,-0.001,0,0,11884,2021-01-15 19:03:41:283
-9.74,-0.151,0.393,-0.001,0,0,11894,2021-01-15 19:03:41:293
-9.726,-0.172,0.414,-0.001,0,0,11904,2021-01-15 19:03:41:303
-9.726,-0.172,0.414,-0.001,0,0,11913,2021-01-15 19:03:41:312
-9.726,-0.172,0.414,-0.001,0,0,11925,2021-01-15 19:03:41:324
-9.726,-0.172,0.414,0,0.001,0,11934,2021-01-15 19:03:41:333
-9.726,-0.172,0.414,0,0.001,0,11944,2021-01-15 19:03:41:343
-9.716,-0.156,0.39,0,0.001,0,11956,2021-01-15 19:03:41:355
-9.716,-0.156,0.39,0,0.001,0,11964,2021-01-15 19:03:41:363
-9.716,-0.156,0.39,0,0.001,0,11974,2021-01-15 19:03:41:373
-9.716,-0.156,0.39,0,0.001,0,11984,2021-01-15 19:03:41:383
-9.716,-0.156,0.39,0,0.001,0,11995,2021-01-15 19:03:41:394
-9.716,-0.156,0.39,0,0.001,0,12003,2021-01-15 19:03:41:402
-9.74,-0.182,0.39,0,0.001,0,12014,2021-01-15 19:03:41:413
-9.74,-0.182,0.39,0,0.001,0,12023,2021-01-15 19:03:41:422
-9.74,-0.182,0.39,0,0.001,0,12034,2021-01-15 19:03:41:433
-9.74,-0.182,0.39,0,0.001,0,12044,2021-01-15 19:03:41:443
-9.74,-0.182,0.39,0,0,0,12054,2021-01-15 19:03:41:453
-9.74,-0.182,0.39,0,0,0,12064,2021-01-15 19:03:41:463
-9.733,-0.18,0.385,0,0,0,12074,2021-01-15 19:03:41:473
-9.733,-0.18,0.385,0,0,0,12084,2021-01-15 19:03:41:483
-9.733,-0.18,0.385,0,0,0,12094,2021-01-15 19:03:41:493
-9.733,-0.18,0.385,0,0,0,12104,2021-01-15 19:03:41:503
-9.733,-0.18,0.385,0,0,0,12114,2021-01-15 19:03:41:513
-9.733,-0.18,0.385,0,0,0,12125,2021-01-15 19:03:41:524
-9.721,-0.163,0.395,0,0,0,12134,2021-01-15 19:03:41:533
-9.721,-0.163,0.395,0,0,0,12143,2021-01-15 19:03:41:542
-9.721,-0.163,0.395,0,0,0,12154,2021-01-15 19:03:41:553
-9.721,-0.163,0.395,0,0,0,12164,2021-01-15 19:03:41:563
-9.721,-0.163,0.395,0,0,0,12174,2021-01-15 19:03:41:573
-9.721,-0.163,0.395,0,0,0,12184,2021-01-15 19:03:41:583
-9.726,-0.175,0.4,0,0,0,12194,2021-01-15 19:03:41:593
-9.726,-0.175,0.4,0,0,0,12204,2021-01-15 19:03:41:603
-9.726,-0.175,0.4,0,0,0,12215,2021-01-15 19:03:41:614
-9.726,-0.175,0.4,0,0,0,12225,2021-01-15 19:03:41:624
-9.726,-0.175,0.4,0,0,0,12234,2021-01-15 19:03:41:633
-9.726,-0.175,0.4,0,0,0,12244,2021-01-15 19:03:41:643
-9.726,-0.163,0.388,0,0,0,12255,2021-01-15 19:03:41:654
-9.726,-0.163,0.388,0,0,0,12264,2021-01-15 19:03:41:663
-9.726,-0.163,0.388,0,0,0,12274,2021-01-15 19:03:41:673
-9.726,-0.163,0.388,0,0,0,12283,2021-01-15 19:03:41:682
-9.726,-0.163,0.388,0,0,0,12294,2021-01-15 19:03:41:693
-9.726,-0.163,0.388,0,0,0,12304,2021-01-15 19:03:41:703
-9.718,-0.17,0.393,0,0,0,12313,2021-01-15 19:03:41:712
-9.718,-0.17,0.393,0,0,0,12324,2021-01-15 19:03:41:723
-9.718,-0.17,0.393,0,0,0,12334,2021-01-15 19:03:41:733
-9.718,-0.17,0.393,0,0,0,12344,2021-01-15 19:03:41:743
-9.718,-0.17,0.393,0,0,0,12353,2021-01-15 19:03:41:752
-9.718,-0.17,0.393,0,0,0,12365,2021-01-15 19:03:41:764
-9.711,-0.172,0.393,0,0,0,12374,2021-01-15 19:03:41:773
-9.711,-0.172,0.393,0,0,0,12384,2021-01-15 19:03:41:783
-9.711,-0.172,0.393,0,0,0,12394,2021-01-15 19:03:41:793
-9.711,-0.172,0.393,0,0,0,12404,2021-01-15 19:03:41:803
-9.711,-0.172,0.393,-0.001,0,0,12413,2021-01-15 19:03:41:812
-9.711,-0.172,0.393,-0.001,0,0,12424,2021-01-15 19:03:41:823
-9.714,-0.168,0.395,-0.001,0,0,12435,2021-01-15 19:03:41:834
-9.714,-0.168,0.395,-0.001,0,0,12444,2021-01-15 19:03:41:843
-9.714,-0.168,0.395,-0.001,0,0,12454,2021-01-15 19:03:41:853
-9.714,-0.168,0.395,-0.001,0,0,12464,2021-01-15 19:03:41:863
-9.714,-0.168,0.395,-0.001,0,0,12474,2021-01-15 19:03:41:873
-9.714,-0.168,0.395,-0.001,0,0,12484,2021-01-15 19:03:41:883
-9.735,-0.168,0.397,-0.001,0,0,12494,2021-01-15 19:03:41:893
-9.735,-0.168,0.397,-0.001,0,0,12504,2021-01-15 19:03:41:903
-9.735,-0.168,0.397,-0.001,0,0,12514,2021-01-15 19:03:41:913
-9.735,-0.168,0.397,-0.001,0,0,12524,2021-01-15 19:03:41:923
-9.735,-0.168,0.397,0,0,0,12534,2021-01-15 19:03:41:933
-9.735,-0.168,0.397,0,0,0,12544,2021-01-15 19:03:41:943
-9.74,-0.175,0.383,0,0,0,12554,2021-01-15 19:03:41:953
-9.74,-0.175,0.383,0,0,0,12565,2021-01-15 19:03:41:964
-9.74,-0.175,0.383,0,0,0,12575,2021-01-15 19:03:41:974
-9.74,-0.175,0.383,0,0,0,12584,2021-01-15 19:03:41:983
-9.74,-0.175,0.383,0,0,0,12594,2021-01-15 19:03:41:993
-9.74,-0.175,0.383,0,0,0,12604,2021-01-15 19:03:42:003
-9.716,-0.151,0.419,0,0,0,12614,2021-01-15 19:03:42:013
-9.716,-0.151,0.419,0,0,0,12624,2021-01-15 19:03:42:023
-9.716,-0.151,0.419,0,0,0,12634,2021-01-15 19:03:42:033
-9.716,-0.151,0.419,0,0,0,12644,2021-01-15 19:03:42:043
-9.716,-0.151,0.419,0,0,0,12654,2021-01-15 19:03:42:053
-9.716,-0.151,0.419,0,0,0,12664,2021-01-15 19:03:42:063
-9.721,-0.177,0.388,0,0,0,12674,2021-01-15 19:03:42:073
-9.721,-0.177,0.388,0,0,0,12684,2021-01-15 19:03:42:083
-9.721,-0.177,0.388,0,0,0,12695,2021-01-15 19:03:42:094
-9.721,-0.177,0.388,0,0,0,12704,2021-01-15 19:03:42:103
-9.721,-0.177,0.388,0,0,0,12713,2021-01-15 19:03:42:112
-9.721,-0.177,0.388,0,0,0,12725,2021-01-15 19:03:42:124
-9.721,-0.168,0.395,0,0,0,12735,2021-01-15 19:03:42:134
-9.721,-0.168,0.395,0,0,0,12744,2021-01-15 19:03:42:143
-9.721,-0.168,0.395,0,0,0,12754,2021-01-15 19:03:42:153
-9.721,-0.168,0.395,0,0,0,12764,2021-01-15 19:03:42:163
-9.721,-0.168,0.395,-0.001,0,0,12774,2021-01-15 19:03:42:173
-9.721,-0.168,0.395,-0.001,0,0,12784,2021-01-15 19:03:42:183
-9.735,-0.165,0.407,-0.001,0,0,12794,2021-01-15 19:03:42:193
-9.735,-0.165,0.407,-0.001,0,0,12803,2021-01-15 19:03:42:202
-9.735,-0.165,0.407,-0.001,0,0,12814,2021-01-15 19:03:42:213
-9.735,-0.165,0.407,-0.001,0,0,12824,2021-01-15 19:03:42:223
-9.735,-0.165,0.407,-0.001,0,0,12834,2021-01-15 19:03:42:233
-9.735,-0.165,0.407,-0.001,0,0,12844,2021-01-15 19:03:42:243
-9.721,-0.182,0.393,-0.001,0,0,12854,2021-01-15 19:03:42:253
-9.721,-0.182,0.393,-0.001,0,0,12863,2021-01-15 19:03:42:262
-9.721,-0.182,0.393,-0.001,0,0,12874,2021-01-15 19:03:42:273
-9.721,-0.182,0.393,-0.001,0,0,12884,2021-01-15 19:03:42:283
-9.721,-0.182,0.393,0,-0.001,0,12893,2021-01-15 19:03:42:292
-9.721,-0.182,0.393,0,-0.001,0,12904,2021-01-15 19:03:42:303
-9.721,-0.182,0.393,0,-0.001,0,12914,2021-01-15 19:03:42:313
-9.714,-0.175,0.393,0,-0.001,0,12924,2021-01-15 19:03:42:323
-9.714,-0.175,0.393,0,-0.001,0,12934,2021-01-15 19:03:42:333
-9.714,-0.175,0.393,0,-0.001,0,12946,2021-01-15 19:03:42:345
-9.714,-0.175,0.393,0,-0.001,0,12954,2021-01-15 19:03:42:353
-9.714,-0.175,0.393,0,-0.001,0,12965,2021-01-15 19:03:42:364
-9.714,-0.165,0.385,0,-0.001,0,12974,2021-01-15 19:03:42:373
-9.714,-0.165,0.385,0,-0.001,0,12984,2021-01-15 19:03:42:383
-9.714,-0.165,0.385,0,-0.001,0,12995,2021-01-15 19:03:42:394
-9.714,-0.165,0.385,0,-0.001,0,13004,2021-01-15 19:03:42:403
-9.714,-0.165,0.385,0,-0.001,0,13014,2021-01-15 19:03:42:413
-9.714,-0.165,0.385,0,-0.001,0,13024,2021-01-15 19:03:42:423
-9.723,-0.184,0.409,0,-0.001,0,13033,2021-01-15 19:03:42:432
-9.723,-0.184,0.409,0,-0.001,0,13044,2021-01-15 19:03:42:443
-9.723,-0.184,0.409,0,-0.001,0,13054,2021-01-15 19:03:42:453
-9.723,-0.184,0.409,0,-0.001,0,13064,2021-01-15 19:03:42:463
-9.723,-0.184,0.409,-0.001,-0.001,0,13074,2021-01-15 19:03:42:473
-9.723,-0.184,0.409,-0.001,-0.001,0,13083,2021-01-15 19:03:42:482
-9.73,-0.156,0.395,-0.001,-0.001,0,13094,2021-01-15 19:03:42:493
-9.73,-0.156,0.395,-0.001,-0.001,0,13104,2021-01-15 19:03:42:503
-9.73,-0.156,0.395,-0.001,-0.001,0,13114,2021-01-15 19:03:42:513
-9.73,-0.156,0.395,-0.001,-0.001,0,13124,2021-01-15 19:03:42:523
-9.73,-0.156,0.395,-0.001,-0.001,0,13134,2021-01-15 19:03:42:533
-9.73,-0.156,0.395,-0.001,-0.001,0,13144,2021-01-15 19:03:42:543
-9.714,-0.17,0.388,-0.001,-0.001,0,13157,2021-01-15 19:03:42:556
-9.714,-0.17,0.388,-0.001,-0.001,0,13164,2021-01-15 19:03:42:563
-9.714,-0.17,0.388,-0.001,-0.001,0,13174,2021-01-15 19:03:42:573
-9.714,-0.17,0.388,-0.001,-0.001,0,13184,2021-01-15 19:03:42:583
-9.714,-0.17,0.388,0,-0.001,0,13198,2021-01-15 19:03:42:597
-9.714,-0.17,0.388,0,-0.001,0,13205,2021-01-15 19:03:42:604
-9.711,-0.172,0.405,0,-0.001,0,13214,2021-01-15 19:03:42:613
-9.711,-0.172,0.405,0,-0.001,0,13223,2021-01-15 19:03:42:622
-9.711,-0.172,0.405,0,-0.001,0,13234,2021-01-15 19:03:42:633
-9.711,-0.172,0.405,0,-0.001,0,13244,2021-01-15 19:03:42:643
-9.711,-0.172,0.405,0,-0.001,0,13253,2021-01-15 19:03:42:652
-9.711,-0.172,0.405,0,-0.001,0,13264,2021-01-15 19:03:42:663
-9.721,-0.168,0.383,0,-0.001,0,13274,2021-01-15 19:03:42:673
-9.721,-0.168,0.383,0,-0.001,0,13284,2021-01-15 19:03:42:683
-9.721,-0.168,0.383,0,-0.001,0,13294,2021-01-15 19:03:42:693
-9.721,-0.168,0.383,0,-0.001,0,13304,2021-01-15 19:03:42:703
-9.721,-0.168,0.383,0,-0.001,0,13313,2021-01-15 19:03:42:712
-9.721,-0.168,0.383,0,-0.001,0,13327,2021-01-15 19:03:42:726
-9.709,-0.163,0.39,0,-0.001,0,13334,2021-01-15 19:03:42:733
-9.709,-0.163,0.39,0,-0.001,0,13347,2021-01-15 19:03:42:746
-9.709,-0.163,0.39,0,-0.001,0,13354,2021-01-15 19:03:42:753
-9.709,-0.163,0.39,0,-0.001,0,13364,2021-01-15 19:03:42:763
-9.709,-0.163,0.39,0,-0.001,0,13374,2021-01-15 19:03:42:773
-9.709,-0.163,0.39,0,-0.001,0,13383,2021-01-15 19:03:42:782
-9.721,-0.163,0.4,0,-0.001,0,13395,2021-01-15 19:03:42:794
-9.721,-0.163,0.4,0,-0.001,0,13404,2021-01-15 19:03:42:803
-9.721,-0.163,0.4,0,-0.001,0,13414,2021-01-15 19:03:42:813
-9.721,-0.163,0.4,0,-0.001,0,13426,2021-01-15 19:03:42:825
-9.721,-0.163,0.4,0,0,0,13433,2021-01-15 19:03:42:832
-9.721,-0.163,0.4,0,0,0,13444,2021-01-15 19:03:42:843
-9.723,-0.17,0.397,0,0,0,13454,2021-01-15 19:03:42:853
-9.723,-0.17,0.397,0,0,0,13463,2021-01-15 19:03:42:862
-9.723,-0.17,0.397,0,0,0,13474,2021-01-15 19:03:42:873
-9.723,-0.17,0.397,0,0,0,13484,2021-01-15 19:03:42:883
-9.723,-0.17,0.397,0,0,0,13494,2021-01-15 19:03:42:893
-9.723,-0.17,0.397,0,0,0,13504,2021-01-15 19:03:42:903
-9.714,-0.17,0.393,0,0,0,13514,2021-01-15 19:03:42:913
-9.714,-0.17,0.393,0,0,0,13525,2021-01-15 19:03:42:924
-9.714,-0.17,0.393,0,0,0,13534,2021-01-15 19:03:42:933
-9.714,-0.17,0.393,0,0,0,13545,2021-01-15 19:03:42:944
-9.714,-0.17,0.393,-0.001,0,0,13553,2021-01-15 19:03:42:952
-9.714,-0.17,0.393,-0.001,0,0,13564,2021-01-15 19:03:42:963
-9.704,-0.151,0.397,-0.001,0,0,13575,2021-01-15 19:03:42:974
-9.704,-0.151,0.397,-0.001,0,0,13584,2021-01-15 19:03:42:983
-9.704,-0.151,0.397,-0.001,0,0,13594,2021-01-15 19:03:42:993
-9.704,-0.151,0.397,-0.001,0,0,13604,2021-01-15 19:03:43:003
-9.704,-0.151,0.397,-0.001,0,0,13613,2021-01-15 19:03:43:012
-9.704,-0.151,0.397,-0.001,0,0,13624,2021-01-15 19:03:43:023
-9.723,-0.175,0.39,-0.001,0,0,13634,2021-01-15 19:03:43:033
-9.723,-0.175,0.39,-0.001,0,0,13644,2021-01-15 19:03:43:043
-9.723,-0.175,0.39,-0.001,0,0,13654,2021-01-15 19:03:43:053
-9.723,-0.175,0.39,-0.001,0,0,13664,2021-01-15 19:03:43:063
-9.723,-0.175,0.39,0,0,0,13674,2021-01-15 19:03:43:073
-9.723,-0.175,0.39,0,0,0,13684,2021-01-15 19:03:43:083
-9.714,-0.16,0.395,0,0,0,13694,2021-01-15 19:03:43:093
-9.714,-0.16,0.395,0,0,0,13703,2021-01-15 19:03:43:102
-9.714,-0.16,0.395,0,0,0,13714,2021-01-15 19:03:43:113
-9.714,-0.16,0.395,0,0,0,13724,2021-01-15 19:03:43:123
-9.714,-0.16,0.395,0,0,0,13734,2021-01-15 19:03:43:133
-9.714,-0.16,0.395,0,0,0,13744,2021-01-15 19:03:43:143
-9.721,-0.156,0.385,0,0,0,13755,2021-01-15 19:03:43:154
-9.721,-0.156,0.385,0,0,0,13764,2021-01-15 19:03:43:163
-9.721,-0.156,0.385,0,0,0,13774,2021-01-15 19:03:43:173
-9.721,-0.156,0.385,0,0,0,13784,2021-01-15 19:03:43:183
-9.721,-0.156,0.385,0,0,0,13794,2021-01-15 19:03:43:193
-9.721,-0.156,0.385,0,0,0,13804,2021-01-15 19:03:43:203
-9.714,-0.17,0.383,0,0,0,13814,2021-01-15 19:03:43:213
-9.714,-0.17,0.383,0,0,0,13824,2021-01-15 19:03:43:223
-9.714,-0.17,0.383,0,0,0,13834,2021-01-15 19:03:43:233
-9.714,-0.17,0.383,0,0,0,13844,2021-01-15 19:03:43:243
-9.714,-0.17,0.383,0,0,0,13854,2021-01-15 19:03:43:253
-9.714,-0.17,0.383,0,0,0,13864,2021-01-15 19:03:43:263
-9.714,-0.151,0.402,0,0,0,13874,2021-01-15 19:03:43:273
-9.714,-0.151,0.402,0,0,0,13884,2021-01-15 19:03:43:283
-9.714,-0.151,0.402,0,0,0,13894,2021-01-15 19:03:43:293
-9.714,-0.151,0.402,0,0,0,13904,2021-01-15 19:03:43:303
-9.714,-0.151,0.402,0,0,0,13915,2021-01-15 19:03:43:314
-9.714,-0.151,0.402,0,0,0,13924,2021-01-15 19:03:43:323
-9.721,-0.163,0.388,0,0,0,13935,2021-01-15 19:03:43:334
-9.721,-0.163,0.388,0,0,0,13944,2021-01-15 19:03:43:343
-9.721,-0.163,0.388,0,0,0,13954,2021-01-15 19:03:43:353
-9.721,-0.163,0.388,0,0,0,13964,2021-01-15 19:03:43:363
-9.721,-0.163,0.388,0,0,0,13974,2021-01-15 19:03:43:373
-9.721,-0.163,0.388,0,0,0,13984,2021-01-15 19:03:43:383
-9.716,-0.177,0.4,0,0,0,13994,2021-01-15 19:03:43:393
-9.716,-0.177,0.4,0,0,0,14004,2021-01-15 19:03:43:403
-9.716,-0.177,0.4,0,0,0,14014,2021-01-15 19:03:43:413
-9.716,-0.177,0.4,0,0,0,14025,2021-01-15 19:03:43:424
-9.716,-0.177,0.4,0,-0.001,0,14034,2021-01-15 19:03:43:433
-9.716,-0.177,0.4,0,-0.001,0,14044,2021-01-15 19:03:43:443
-9.711,-0.16,0.39,0,-0.001,0,14054,2021-01-15 19:03:43:453
-9.711,-0.16,0.39,0,-0.001,0,14064,2021-01-15 19:03:43:463
-9.711,-0.16,0.39,0,-0.001,0,14073,2021-01-15 19:03:43:472
-9.711,-0.16,0.39,0,-0.001,0,14084,2021-01-15 19:03:43:483
-9.711,-0.16,0.39,0,-0.001,0,14094,2021-01-15 19:03:43:493
-9.711,-0.16,0.39,0,-0.001,0,14103,2021-01-15 19:03:43:502
-9.718,-0.163,0.395,0,-0.001,0,14114,2021-01-15 19:03:43:513
-9.718,-0.163,0.395,0,-0.001,0,14124,2021-01-15 19:03:43:523
-9.718,-0.163,0.395,0,-0.001,0,14134,2021-01-15 19:03:43:533
-9.718,-0.163,0.395,0,-0.001,0,14144,2021-01-15 19:03:43:543
-9.718,-0.163,0.395,0,0,0,14154,2021-01-15 19:03:43:553
-9.718,-0.163,0.395,0,0,0,14164,2021-01-15 19:03:43:563
-9.728,-0.16,0.4,0,0,0,14173,2021-01-15 19:03:43:572
-9.728,-0.16,0.4,0,0,0,14184,2021-01-15 19:03:43:583
-9.728,-0.16,0.4,0,0,0,14194,2021-01-15 19:03:43:593
-9.728,-0.16,0.4,0,0,0,14204,2021-01-15 19:03:43:603
-9.728,-0.16,0.4,0,0,0,14214,2021-01-15 19:03:43:613
-9.728,-0.16,0.4,0,0,0,14224,2021-01-15 19:03:43:623
-9.728,-0.168,0.4,0,0,0,14234,2021-01-15 19:03:43:633
-9.728,-0.168,0.4,0,0,0,14244,2021-01-15 19:03:43:643
-9.728,-0.168,0.4,0,0,0,14254,2021-01-15 19:03:43:653
-9.728,-0.168,0.4,0,0,0,14263,2021-01-15 19:03:43:662
-9.728,-0.168,0.4,0,-0.001,0,14274,2021-01-15 19:03:43:673
-9.728,-0.168,0.4,0,-0.001,0,14284,2021-01-15 19:03:43:683
-9.723,-0.163,0.395,0,-0.001,0,14294,2021-01-15 19:03:43:693
-9.723,-0.163,0.395,0,-0.001,0,14304,2021-01-15 19:03:43:703
-9.723,-0.163,0.395,0,-0.001,0,14314,2021-01-15 19:03:43:713
-9.723,-0.163,0.395,0,-0.001,0,14324,2021-01-15 19:03:43:723
-9.723,-0.163,0.395,0,-0.001,0,14334,2021-01-15 19:03:43:733
-9.723,-0.163,0.395,0,-0.001,0,14344,2021-01-15 19:03:43:743
-9.721,-0.17,0.378,0,-0.001,0,14353,2021-01-15 19:03:43:752
-9.721,-0.17,0.378,0,-0.001,0,14364,2021-01-15 19:03:43:763
-9.721,-0.17,0.378,0,-0.001,0,14374,2021-01-15 19:03:43:773
-9.721,-0.17,0.378,0,-0.001,0,14384,2021-01-15 19:03:43:783
-9.721,-0.17,0.378,0,0,0,14394,2021-01-15 19:03:43:793
-9.721,-0.17,0.378,0,0,0,14404,2021-01-15 19:03:43:803
-9.716,-0.168,0.407,0,0,0,14415,2021-01-15 19:03:43:814
-9.716,-0.168,0.407,0,0,0,14424,2021-01-15 19:03:43:823
-9.716,-0.168,0.407,0,0,0,14434,2021-01-15 19:03:43:833
-9.716,-0.168,0.407,0,0,0,14444,2021-01-15 19:03:43:843
-9.716,-0.168,0.407,0,0,0,14454,2021-01-15 19:03:43:853
-9.716,-0.168,0.407,0,0,0,14465,2021-01-15 19:03:43:864
-9.704,-0.175,0.39,0,0,0,14474,2021-01-15 19:03:43:873
-9.704,-0.175,0.39,0,0,0,14484,2021-01-15 19:03:43:883
-9.704,-0.175,0.39,0,0,0,14494,2021-01-15 19:03:43:893
-9.704,-0.175,0.39,0,0,0,14504,2021-01-15 19:03:43:903
-9.704,-0.175,0.39,0,0,0,14515,2021-01-15 19:03:43:914
-9.704,-0.175,0.39,0,0,0,14524,2021-01-15 19:03:43:923
-9.73,-0.182,0.393,0,0,0,14534,2021-01-15 19:03:43:933
-9.73,-0.182,0.393,0,0,0,14544,2021-01-15 19:03:43:943
-9.73,-0.182,0.393,0,0,0,14554,2021-01-15 19:03:43:953
-9.73,-0.182,0.393,0,0,0,14564,2021-01-15 19:03:43:963
-9.73,-0.182,0.393,0,0,0,14574,2021-01-15 19:03:43:973
-9.73,-0.182,0.393,0,0,0,14584,2021-01-15 19:03:43:983
-9.73,-0.182,0.393,0,0,0,14594,2021-01-15 19:03:43:993
-9.73,-0.182,0.393,0,0,0,14604,2021-01-15 19:03:44:003
-9.723,-0.16,0.393,0,0,0,14614,2021-01-15 19:03:44:013
-9.723,-0.16,0.393,0,0,0,14624,2021-01-15 19:03:44:023
-9.723,-0.16,0.393,0,0,0,14634,2021-01-15 19:03:44:033
-9.723,-0.16,0.393,0,0,0,14644,2021-01-15 19:03:44:043
-9.723,-0.16,0.393,0,0,0,14654,2021-01-15 19:03:44:053
-9.723,-0.16,0.393,0,0,0,14663,2021-01-15 19:03:44:062
-9.728,-0.163,0.402,0,0,0,14674,2021-01-15 19:03:44:073
-9.728,-0.163,0.402,0,0,0,14684,2021-01-15 19:03:44:083
-9.728,-0.163,0.402,0,0,0,14694,2021-01-15 19:03:44:093
-9.728,-0.163,0.402,0,0,0,14704,2021-01-15 19:03:44:103
-9.728,-0.163,0.402,0,0,0,14714,2021-01-15 19:03:44:113
-9.728,-0.163,0.402,0,0,0,14723,2021-01-15 19:03:44:122
-9.721,-0.163,0.402,0,0,0,14734,2021-01-15 19:03:44:133
-9.721,-0.163,0.402,0,0,0,14744,2021-01-15 19:03:44:143
-9.721,-0.163,0.402,0,0,0,14754,2021-01-15 19:03:44:153
-9.721,-0.163,0.402,0,0,0,14764,2021-01-15 19:03:44:163
-9.721,-0.163,0.402,0,0,0,14773,2021-01-15 19:03:44:172
-9.721,-0.163,0.402,0,0,0,14784,2021-01-15 19:03:44:183
-9.721,-0.163,0.393,0,0,0,14794,2021-01-15 19:03:44:193
-9.721,-0.163,0.393,0,0,0,14803,2021-01-15 19:03:44:202
-9.721,-0.163,0.393,0,0,0,14814,2021-01-15 19:03:44:213
-9.721,-0.163,0.393,0,0,0,14824,2021-01-15 19:03:44:223
-9.721,-0.163,0.393,0,0,0,14834,2021-01-15 19:03:44:233
-9.721,-0.163,0.393,0,0,0,14844,2021-01-15 19:03:44:243
-9.73,-0.17,0.407,0,0,0,14854,2021-01-15 19:03:44:253
-9.73,-0.17,0.407,0,0,0,14864,2021-01-15 19:03:44:263
-9.73,-0.17,0.407,0,0,0,14874,2021-01-15 19:03:44:273
-9.73,-0.17,0.407,0,0,0,14884,2021-01-15 19:03:44:283
-9.73,-0.17,0.407,0,0,0,14894,2021-01-15 19:03:44:293
-9.73,-0.17,0.407,0,0,0,14903,2021-01-15 19:03:44:302
-9.73,-0.165,0.376,0,0,0,14914,2021-01-15 19:03:44:313
-9.73,-0.165,0.376,0,0,0,14924,2021-01-15 19:03:44:323
-9.73,-0.165,0.376,0,0,0,14934,2021-01-15 19:03:44:333
-9.73,-0.165,0.376,0,0,0,14947,2021-01-15 19:03:44:346
-9.73,-0.165,0.376,0,0,0,14954,2021-01-15 19:03:44:353
-9.73,-0.165,0.376,0,0,0,14964,2021-01-15 19:03:44:363
-9.714,-0.165,0.383,0,0,0,14973,2021-01-15 19:03:44:372
-9.714,-0.165,0.383,0,0,0,14984,2021-01-15 19:03:44:383
-9.714,-0.165,0.383,0,0,0,14994,2021-01-15 19:03:44:393
-9.714,-0.165,0.383,0,0,0,15004,2021-01-15 19:03:44:403
-9.714,-0.165,0.383,0,0,0,15014,2021-01-15 19:03:44:413
-9.714,-0.165,0.383,0,0,0,15024,2021-01-15 19:03:44:423
-9.718,-0.17,0.393,0,0,0,15034,2021-01-15 19:03:44:433
-9.718,-0.17,0.393,0,0,0,15044,2021-01-15 19:03:44:443
-9.718,-0.17,0.393,0,0,0,15054,2021-01-15 19:03:44:453
-9.718,-0.17,0.393,0,0,0,15063,2021-01-15 19:03:44:462
-9.718,-0.17,0.393,0,0,0,15074,2021-01-15 19:03:44:473
-9.716,-0.177,0.402,0,0,0,15088,2021-01-15 19:03:44:487
-9.716,-0.177,0.402,0,0,0,15094,2021-01-15 19:03:44:493
-9.716,-0.177,0.402,0,0,0,15104,2021-01-15 19:03:44:503
-9.716,-0.177,0.402,0,0,0,15117,2021-01-15 19:03:44:516
-9.716,-0.177,0.402,0,0,0,15124,2021-01-15 19:03:44:523
-9.716,-0.177,0.402,0,0,0,15135,2021-01-15 19:03:44:534
-9.716,-0.177,0.402,0,0,0,15144,2021-01-15 19:03:44:543
-9.716,-0.177,0.402,0,0,0,15153,2021-01-15 19:03:44:552
-9.716,-0.168,0.385,0,0,0,15164,2021-01-15 19:03:44:563
-9.716,-0.168,0.385,0,0,0,15174,2021-01-15 19:03:44:573
-9.716,-0.168,0.385,0,0,0,15184,2021-01-15 19:03:44:583
-9.716,-0.168,0.385,0,0,0,15195,2021-01-15 19:03:44:594
-9.716,-0.168,0.385,0,0,0,15204,2021-01-15 19:03:44:603
-9.716,-0.168,0.385,0,0,0,15214,2021-01-15 19:03:44:613
-9.716,-0.168,0.385,0,0,0,15224,2021-01-15 19:03:44:623
-9.723,-0.168,0.393,0,0,0,15234,2021-01-15 19:03:44:633
-9.723,-0.168,0.393,0,0,0,15245,2021-01-15 19:03:44:644
-9.723,-0.168,0.393,0,0,0,15254,2021-01-15 19:03:44:653
-9.723,-0.168,0.393,0,0,0,15265,2021-01-15 19:03:44:664
-9.723,-0.168,0.393,0,0,0,15274,2021-01-15 19:03:44:673
-9.723,-0.168,0.393,0,0,0,15285,2021-01-15 19:03:44:684
-9.726,-0.165,0.383,0,0,0,15294,2021-01-15 19:03:44:693
-9.726,-0.165,0.383,0,0,0,15304,2021-01-15 19:03:44:703
-9.726,-0.165,0.383,0,0,0,15315,2021-01-15 19:03:44:714
-9.726,-0.165,0.383,0,0,0,15325,2021-01-15 19:03:44:724
-9.726,-0.165,0.383,0,0,0,15334,2021-01-15 19:03:44:733
-9.726,-0.165,0.383,0,0,0,15343,2021-01-15 19:03:44:742
-9.735,-0.163,0.39,0,0,0,15354,2021-01-15 19:03:44:753
-9.735,-0.163,0.39,0,0,0,15364,2021-01-15 19:03:44:763
-9.735,-0.163,0.39,0,0,0,15373,2021-01-15 19:03:44:772
-9.735,-0.163,0.39,0,0,0,15384,2021-01-15 19:03:44:783
-9.735,-0.163,0.39,0,0,0,15394,2021-01-15 19:03:44:793
-9.735,-0.163,0.39,0,0,0,15404,2021-01-15 19:03:44:803
-9.735,-0.16,0.397,0,0,0,15415,2021-01-15 19:03:44:814
-9.735,-0.16,0.397,0,0,0,15424,2021-01-15 19:03:44:823
-9.735,-0.16,0.397,0,0,0,15434,2021-01-15 19:03:44:833
-9.735,-0.16,0.397,0,0,0,15444,2021-01-15 19:03:44:843
-9.735,-0.16,0.397,0,0,0,15454,2021-01-15 19:03:44:853
-9.735,-0.16,0.397,0,0,0,15464,2021-01-15 19:03:44:863
-9.723,-0.17,0.393,-0.001,0,0,15475,2021-01-15 19:03:44:874
-9.723,-0.17,0.393,-0.001,0,0,15485,2021-01-15 19:03:44:884
-9.723,-0.17,0.393,-0.001,0,0,15493,2021-01-15 19:03:44:892
-9.723,-0.17,0.393,-0.001,0,0,15504,2021-01-15 19:03:44:903
-9.723,-0.17,0.393,-0.001,0,0,15514,2021-01-15 19:03:44:913
-9.723,-0.17,0.393,-0.001,0,0,15524,2021-01-15 19:03:44:923
-9.711,-0.16,0.393,-0.001,0,0,15534,2021-01-15 19:03:44:933
-9.711,-0.16,0.393,-0.001,0,0,15544,2021-01-15 19:03:44:943
-9.711,-0.16,0.393,-0.001,0,0,15554,2021-01-15 19:03:44:953
-9.711,-0.16,0.393,-0.001,0,0,15564,2021-01-15 19:03:44:963
-9.711,-0.16,0.393,-0.001,0,0,15573,2021-01-15 19:03:44:972
-9.711,-0.16,0.393,-0.001,0,0,15584,2021-01-15 19:03:44:983
-9.714,-0.163,0.378,0,0.001,0,15594,2021-01-15 19:03:44:993
-9.714,-0.163,0.378,0,0.001,0,15604,2021-01-15 19:03:45:003
-9.714,-0.163,0.378,0,0.001,0,15617,2021-01-15 19:03:45:016
-9.714,-0.163,0.378,0,0.001,0,15624,2021-01-15 19:03:45:023
-9.714,-0.163,0.378,0,0.001,0,15635,2021-01-15 19:03:45:034
-9.714,-0.163,0.378,0,0.001,0,15644,2021-01-15 19:03:45:043
-9.716,-0.158,0.395,0,0.001,0,15653,2021-01-15 19:03:45:052
-9.716,-0.158,0.395,0,0.001,0,15664,2021-01-15 19:03:45:063
-9.716,-0.158,0.395,0,0.001,0,15674,2021-01-15 19:03:45:073
-9.716,-0.158,0.395,0,0.001,0,15685,2021-01-15 19:03:45:084
-9.716,-0.158,0.395,0,0.001,0,15694,2021-01-15 19:03:45:093
-9.716,-0.158,0.395,0,0.001,0,15704,2021-01-15 19:03:45:103
-9.706,-0.168,0.385,0,0,0,15715,2021-01-15 19:03:45:114
-9.706,-0.168,0.385,0,0,0,15725,2021-01-15 19:03:45:124
-9.706,-0.168,0.385,0,0,0,15736,2021-01-15 19:03:45:135
-9.706,-0.168,0.385,0,0,0,15744,2021-01-15 19:03:45:143
-9.706,-0.168,0.385,0,0,0,15755,2021-01-15 19:03:45:154
-9.706,-0.168,0.385,0,0,0,15764,2021-01-15 19:03:45:163
-9.711,-0.163,0.417,0,0,0,15775,2021-01-15 19:03:45:174
-9.711,-0.163,0.417,0,0,0,15783,2021-01-15 19:03:45:182
-9.711,-0.163,0.417,0,0,0,15794,2021-01-15 19:03:45:193
-9.711,-0.163,0.417,0,0,0,15804,2021-01-15 19:03:45:203
-9.711,-0.163,0.417,0,0,0,15814,2021-01-15 19:03:45:213
-9.711,-0.163,0.417,0,0,0,15823,2021-01-15 19:03:45:222
-9.716,-0.172,0.388,0,0,0,15834,2021-01-15 19:03:45:233
-9.716,-0.172,0.388,0,0,0,15844,2021-01-15 19:03:45:243
-9.716,-0.172,0.388,0,0,0,15853,2021-01-15 19:03:45:252
-9.716,-0.172,0.388,0,0,0,15863,2021-01-15 19:03:45:262
-9.716,-0.172,0.388,0,0,0,15874,2021-01-15 19:03:45:273
-9.716,-0.172,0.388,0,0,0,15884,2021-01-15 19:03:45:283
-9.726,-0.18,0.414,0,0,0,15894,2021-01-15 19:03:45:293
-9.726,-0.18,0.414,0,0,0,15903,2021-01-15 19:03:45:302
-9.726,-0.18,0.414,0,0,0,15914,2021-01-15 19:03:45:313
-9.726,-0.18,0.414,0,0,0,15924,2021-01-15 19:03:45:323
-9.726,-0.18,0.414,0,0,0,15933,2021-01-15 19:03:45:332
-9.726,-0.18,0.414,0,0,0,15944,2021-01-15 19:03:45:343
-9.718,-0.163,0.402,-0.001,0,0,15958,2021-01-15 19:03:45:357
-9.718,-0.163,0.402,-0.001,0,0,15964,2021-01-15 19:03:45:363
-9.718,-0.163,0.402,-0.001,0,0,15974,2021-01-15 19:03:45:373
-9.718,-0.163,0.402,-0.001,0,0,15984,2021-01-15 19:03:45:383
-9.718,-0.163,0.402,-0.001,0,0,15994,2021-01-15 19:03:45:393
-9.718,-0.163,0.402,-0.001,0,0,16004,2021-01-15 19:03:45:403
-9.709,-0.175,0.407,-0.001,0,0,16015,2021-01-15 19:03:45:414
-9.709,-0.175,0.407,-0.001,0,0,16024,2021-01-15 19:03:45:423
-9.709,-0.175,0.407,-0.001,0,0,16034,2021-01-15 19:03:45:433
-9.709,-0.175,0.407,-0.001,0,0,16044,2021-01-15 19:03:45:443
-9.709,-0.175,0.407,-0.001,0,0,16054,2021-01-15 19:03:45:453
-9.709,-0.175,0.407,-0.001,0,0,16064,2021-01-15 19:03:45:463
-9.714,-0.16,0.402,-0.001,0,0,16074,2021-01-15 19:03:45:473
-9.714,-0.16,0.402,-0.001,0,0,16084,2021-01-15 19:03:45:483
-9.714,-0.16,0.402,-0.001,0,0,16094,2021-01-15 19:03:45:493
-9.714,-0.16,0.402,-0.001,0,0,16104,2021-01-15 19:03:45:503
-9.714,-0.16,0.402,-0.001,0,0,16116,2021-01-15 19:03:45:515
-9.714,-0.16,0.402,-0.001,0,0,16124,2021-01-15 19:03:45:523
-9.716,-0.17,0.397,-0.001,0,0,16135,2021-01-15 19:03:45:534
-9.716,-0.17,0.397,-0.001,0,0,16144,2021-01-15 19:03:45:543
-9.716,-0.17,0.397,-0.001,0,0,16154,2021-01-15 19:03:45:553
-9.716,-0.17,0.397,-0.001,0,0,16165,2021-01-15 19:03:45:564
-9.716,-0.17,0.397,-0.001,0,0,16174,2021-01-15 19:03:45:573
-9.716,-0.17,0.397,-0.001,0,0,16184,2021-01-15 19:03:45:583
-9.699,-0.17,0.378,0,0,0,16194,2021-01-15 19:03:45:593
-9.699,-0.17,0.378,0,0,0,16204,2021-01-15 19:03:45:603
-9.699,-0.17,0.378,0,0,0,16213,2021-01-15 19:03:45:612
-9.699,-0.17,0.378,0,0,0,16224,2021-01-15 19:03:45:623
-9.699,-0.17,0.378,0,0,0,16234,2021-01-15 19:03:45:633
-9.699,-0.17,0.378,0,0,0,16244,2021-01-15 19:03:45:643
-9.728,-0.165,0.385,0,0,0,16254,2021-01-15 19:03:45:653
-9.728,-0.165,0.385,0,0,0,16264,2021-01-15 19:03:45:663
-9.728,-0.165,0.385,0,0,0,16274,2021-01-15 19:03:45:673
-9.728,-0.165,0.385,0,0,0,16285,2021-01-15 19:03:45:684
-9.728,-0.165,0.385,0,0,0,16294,2021-01-15 19:03:45:693
-9.728,-0.165,0.385,0,0,0,16304,2021-01-15 19:03:45:703
-9.728,-0.16,0.412,0,0,0,16314,2021-01-15 19:03:45:713
-9.728,-0.16,0.412,0,0,0,16324,2021-01-15 19:03:45:723
-9.728,-0.16,0.412,0,0,0,16333,2021-01-15 19:03:45:732
-9.728,-0.16,0.412,0,0,0,16344,2021-01-15 19:03:45:743
-9.728,-0.16,0.412,0,0,0,16354,2021-01-15 19:03:45:753
-9.728,-0.16,0.412,0,0,0,16364,2021-01-15 19:03:45:763
-9.733,-0.168,0.383,0,0,0,16374,2021-01-15 19:03:45:773
-9.733,-0.168,0.383,0,0,0,16386,2021-01-15 19:03:45:785
-9.733,-0.168,0.383,0,0,0,16394,2021-01-15 19:03:45:793
-9.733,-0.168,0.383,0,0,0,16404,2021-01-15 19:03:45:803
-9.733,-0.168,0.383,0,0,0,16414,2021-01-15 19:03:45:813
-9.733,-0.168,0.383,0,0,0,16424,2021-01-15 19:03:45:823
-9.706,-0.17,0.407,0,0,0,16434,2021-01-15 19:03:45:833
-9.706,-0.17,0.407,0,0,0,16444,2021-01-15 19:03:45:843
-9.706,-0.17,0.407,0,0,0,16456,2021-01-15 19:03:45:855
-9.706,-0.17,0.407,0,0,0,16464,2021-01-15 19:03:45:863
-9.706,-0.17,0.407,0,0,0,16474,2021-01-15 19:03:45:873
-9.706,-0.17,0.407,0,0,0,16484,2021-01-15 19:03:45:883
-9.723,-0.16,0.383,0,0,0,16493,2021-01-15 19:03:45:892
-9.723,-0.16,0.383,0,0,0,16504,2021-01-15 19:03:45:903
-9.723,-0.16,0.383,0,0,0,16514,2021-01-15 19:03:45:913
-9.723,-0.16,0.383,0,0,0,16524,2021-01-15 19:03:45:923
-9.723,-0.16,0.383,0,0,0,16534,2021-01-15 19:03:45:933
-9.723,-0.16,0.383,0,0,0,16544,2021-01-15 19:03:45:943
-9.728,-0.175,0.39,0,0.001,0,16554,2021-01-15 19:03:45:953
-9.728,-0.175,0.39,0,0.001,0,16564,2021-01-15 19:03:45:963
-9.728,-0.175,0.39,0,0.001,0,16574,2021-01-15 19:03:45:973
-9.728,-0.175,0.39,0,0.001,0,16584,2021-01-15 19:03:45:983
-9.728,-0.175,0.39,0,0.001,0,16593,2021-01-15 19:03:45:992
-9.728,-0.175,0.39,0,0.001,0,16604,2021-01-15 19:03:46:003
-9.709,-0.17,0.383,0,0.001,0,16613,2021-01-15 19:03:46:012
-9.709,-0.17,0.383,0,0.001,0,16624,2021-01-15 19:03:46:023
-9.709,-0.17,0.383,0,0.001,0,16633,2021-01-15 19:03:46:032
-9.709,-0.17,0.383,0,0.001,0,16648,2021-01-15 19:03:46:047
-9.709,-0.17,0.383,0,0.001,0,16654,2021-01-15 19:03:46:053
-9.709,-0.17,0.383,0,0.001,0,16664,2021-01-15 19:03:46:063
-9.706,-0.156,0.402,0.001,0,0,16674,2021-01-15 19:03:46:073
-9.706,-0.156,0.402,0.001,0,0,16683,2021-01-15 19:03:46:082
-9.706,-0.156,0.402,0.001,0,0,16693,2021-01-15 19:03:46:092
-9.706,-0.156,0.402,0.001,0,0,16705,2021-01-15 19:03:46:104
-9.706,-0.156,0.402,0.001,0,0,16714,2021-01-15 19:03:46:113
-9.706,-0.156,0.402,0.001,0,0,16724,2021-01-15 19:03:46:123
-9.714,-0.168,0.385,0.001,0,0,16734,2021-01-15 19:03:46:133
-9.714,-0.168,0.385,0.001,0,0,16746,2021-01-15 19:03:46:145
-9.714,-0.168,0.385,0.001,0,0,16755,2021-01-15 19:03:46:154
-9.714,-0.168,0.385,0.001,0,0,16763,2021-01-15 19:03:46:162
-9.714,-0.168,0.385,0.001,0,0,16774,2021-01-15 19:03:46:173
-9.726,-0.153,0.388,0,0,0,16792,2021-01-15 19:03:46:191
-9.726,-0.153,0.388,0,0,0,16794,2021-01-15 19:03:46:193
-9.726,-0.153,0.388,0,0,0,16804,2021-01-15 19:03:46:203
-9.726,-0.153,0.388,0,0,0,16814,2021-01-15 19:03:46:213
-9.726,-0.153,0.388,0,0,0,16824,2021-01-15 19:03:46:223
-9.726,-0.153,0.388,0,0,0,16834,2021-01-15 19:03:46:233
-9.726,-0.153,0.388,0,0,0,16844,2021-01-15 19:03:46:243
-9.711,-0.168,0.395,0,0,0,16853,2021-01-15 19:03:46:252
-9.711,-0.168,0.395,0,0,0,16864,2021-01-15 19:03:46:263
-9.711,-0.168,0.395,0,0,0,16875,2021-01-15 19:03:46:274
-9.711,-0.168,0.395,0,0,0,16886,2021-01-15 19:03:46:285
-9.711,-0.168,0.395,0,0,0,16894,2021-01-15 19:03:46:293
-9.711,-0.168,0.395,0,0,0,16904,2021-01-15 19:03:46:303
-9.728,-0.168,0.385,0,0,0,16914,2021-01-15 19:03:46:313
-9.728,-0.168,0.385,0,0,0,16924,2021-01-15 19:03:46:323
-9.728,-0.168,0.385,0,0,0,16934,2021-01-15 19:03:46:333
-9.728,-0.168,0.385,0,0,0,16944,2021-01-15 19:03:46:343
-9.728,-0.168,0.385,0,0,0,16954,2021-01-15 19:03:46:353
-9.728,-0.168,0.385,0,0,0,16964,2021-01-15 19:03:46:363
-9.714,-0.165,0.39,0,0,0,16973,2021-01-15 19:03:46:372
-9.714,-0.165,0.39,0,0,0,16992,2021-01-15 19:03:46:391
-9.714,-0.165,0.39,0,0,0,16994,2021-01-15 19:03:46:393
-9.714,-0.165,0.39,0,0,0,17004,2021-01-15 19:03:46:403
-9.714,-0.165,0.39,0,0,0,17013,2021-01-15 19:03:46:412
-9.714,-0.165,0.39,0,0,0,17024,2021-01-15 19:03:46:423
-9.723,-0.17,0.395,0,0,0,17034,2021-01-15 19:03:46:433
-9.723,-0.17,0.395,0,0,0,17044,2021-01-15 19:03:46:443
-9.723,-0.17,0.395,0,0,0,17054,2021-01-15 19:03:46:453
-9.723,-0.17,0.395,0,0,0,17064,2021-01-15 19:03:46:463
-9.723,-0.17,0.395,0,0,0,17074,2021-01-15 19:03:46:473
-9.723,-0.17,0.395,0,0,0,17087,2021-01-15 19:03:46:486
-9.73,-0.175,0.364,0,0,0,17094,2021-01-15 19:03:46:493
-9.73,-0.175,0.364,0,0,0,17103,2021-01-15 19:03:46:502
-9.73,-0.175,0.364,0,0,0,17114,2021-01-15 19:03:46:513
-9.73,-0.175,0.364,0,0,0,17124,2021-01-15 19:03:46:523
-9.73,-0.175,0.364,0,0,0,17134,2021-01-15 19:03:46:533
-9.73,-0.175,0.364,0,0,0,17146,2021-01-15 19:03:46:545
-9.73,-0.182,0.393,-0.001,0,0,17155,2021-01-15 19:03:46:554
-9.73,-0.182,0.393,-0.001,0,0,17163,2021-01-15 19:03:46:562
-9.73,-0.182,0.393,-0.001,0,0,17174,2021-01-15 19:03:46:573
-9.73,-0.182,0.393,-0.001,0,0,17186,2021-01-15 19:03:46:585
-9.73,-0.182,0.393,-0.001,0,0,17194,2021-01-15 19:03:46:593
-9.73,-0.182,0.393,-0.001,0,0,17204,2021-01-15 19:03:46:603
-9.716,-0.165,0.385,-0.001,0,0,17214,2021-01-15 19:03:46:613
-9.716,-0.165,0.385,-0.001,0,0,17224,2021-01-15 19:03:46:623
-9.716,-0.165,0.385,-0.001,0,0,17234,2021-01-15 19:03:46:633
-9.716,-0.165,0.385,-0.001,0,0,17244,2021-01-15 19:03:46:643
-9.716,-0.165,0.385,-0.001,0,0,17253,2021-01-15 19:03:46:652
-9.716,-0.165,0.385,-0.001,0,0,17264,2021-01-15 19:03:46:663
-9.711,-0.16,0.395,-0.001,0,0,17274,2021-01-15 19:03:46:673
-9.711,-0.16,0.395,-0.001,0,0,17284,2021-01-15 19:03:46:683
-9.711,-0.16,0.395,-0.001,0,0,17294,2021-01-15 19:03:46:693
-9.711,-0.16,0.395,-0.001,0,0,17303,2021-01-15 19:03:46:702
-9.711,-0.16,0.395,-0.001,0,0,17314,2021-01-15 19:03:46:713
-9.711,-0.16,0.395,-0.001,0,0,17325,2021-01-15 19:03:46:724
-9.735,-0.168,0.419,-0.001,0,0,17334,2021-01-15 19:03:46:733
-9.735,-0.168,0.419,-0.001,0,0,17345,2021-01-15 19:03:46:744
-9.735,-0.168,0.419,-0.001,0,0,17354,2021-01-15 19:03:46:753
-9.735,-0.168,0.419,-0.001,0,0,17364,2021-01-15 19:03:46:763
-9.735,-0.168,0.419,-0.001,0,0,17373,2021-01-15 19:03:46:772
-9.735,-0.168,0.419,-0.001,0,0,17385,2021-01-15 19:03:46:784
-9.721,-0.172,0.407,0,0,0,17394,2021-01-15 19:03:46:793
-9.721,-0.172,0.407,0,0,0,17404,2021-01-15 19:03:46:803
-9.721,-0.172,0.407,0,0,0,17414,2021-01-15 19:03:46:813
-9.721,-0.172,0.407,0,0,0,17424,2021-01-15 19:03:46:823
-9.721,-0.172,0.407,0,0,0,17433,2021-01-15 19:03:46:832
-9.721,-0.172,0.407,0,0,0,17444,2021-01-15 19:03:46:843
-9.721,-0.172,0.407,0,0,0,17455,2021-01-15 19:03:46:854
-9.726,-0.151,0.385,0,0,0,17464,2021-01-15 19:03:46:863
-9.726,-0.151,0.385,0,0,0,17474,2021-01-15 19:03:46:873
-9.726,-0.151,0.385,0,0,0,17484,2021-01-15 19:03:46:883
-9.726,-0.151,0.385,0,0,0,17494,2021-01-15 19:03:46:893
-9.726,-0.151,0.385,0,0,0,17504,2021-01-15 19:03:46:903
-9.726,-0.151,0.385,0,0.001,0,17513,2021-01-15 19:03:46:912
-9.726,-0.151,0.385,0,0.001,0,17524,2021-01-15 19:03:46:923
-9.742,-0.175,0.388,0,0.001,0,17533,2021-01-15 19:03:46:932
-9.742,-0.175,0.388,0,0.001,0,17544,2021-01-15 19:03:46:943
-9.742,-0.175,0.388,0,0.001,0,17554,2021-01-15 19:03:46:953
-9.742,-0.175,0.388,0,0.001,0,17565,2021-01-15 19:03:46:964
-9.742,-0.175,0.388,0,0.001,0,17574,2021-01-15 19:03:46:973
-9.742,-0.175,0.388,0,0.001,0,17584,2021-01-15 19:03:46:983
-9.726,-0.177,0.395,0,0.001,0,17594,2021-01-15 19:03:46:993
-9.726,-0.177,0.395,0,0.001,0,17604,2021-01-15 19:03:47:003
-9.726,-0.177,0.395,0,0.001,0,17614,2021-01-15 19:03:47:013
-9.726,-0.177,0.395,0,0.001,0,17624,2021-01-15 19:03:47:023
-9.726,-0.177,0.395,0,0.001,0,17634,2021-01-15 19:03:47:033
-9.726,-0.177,0.395,0,0.001,0,17644,2021-01-15 19:03:47:043
-9.723,-0.177,0.4,0,0.001,0,17654,2021-01-15 19:03:47:053
-9.723,-0.177,0.4,0,0.001,0,17663,2021-01-15 19:03:47:062
-9.723,-0.177,0.4,0,0.001,0,17674,2021-01-15 19:03:47:073
-9.723,-0.177,0.4,0,0.001,0,17683,2021-01-15 19:03:47:082
-9.723,-0.177,0.4,0,0.001,0,17694,2021-01-15 19:03:47:093
-9.723,-0.177,0.4,0,0.001,0,17704,2021-01-15 19:03:47:103
-9.723,-0.158,0.395,0,0.001,0,17714,2021-01-15 19:03:47:113
-9.723,-0.158,0.395,0,0.001,0,17725,2021-01-15 19:03:47:124
-9.723,-0.158,0.395,0,0.001,0,17734,2021-01-15 19:03:47:133
-9.723,-0.158,0.395,0,0.001,0,17745,2021-01-15 19:03:47:144
-9.723,-0.158,0.395,0,0,0,17754,2021-01-15 19:03:47:153
-9.723,-0.158,0.395,0,0,0,17765,2021-01-15 19:03:47:164
-9.721,-0.144,0.402,0,0,0,17775,2021-01-15 19:03:47:174
-9.721,-0.144,0.402,0,0,0,17783,2021-01-15 19:03:47:182
-9.721,-0.144,0.402,0,0,0,17795,2021-01-15 19:03:47:194
-9.721,-0.144,0.402,0,0,0,17804,2021-01-15 19:03:47:203
-9.721,-0.144,0.402,0,0,0,17814,2021-01-15 19:03:47:213
-9.721,-0.144,0.402,0,0,0,17824,2021-01-15 19:03:47:223
-9.726,-0.177,0.395,0,0,0,17833,2021-01-15 19:03:47:232
-9.726,-0.177,0.395,0,0,0,17843,2021-01-15 19:03:47:242
-9.726,-0.177,0.395,0,0,0,17855,2021-01-15 19:03:47:254
-9.726,-0.177,0.395,0,0,0,17864,2021-01-15 19:03:47:263
-9.726,-0.177,0.395,0,0,0,17874,2021-01-15 19:03:47:273
-9.726,-0.177,0.395,0,0.001,0,17884,2021-01-15 19:03:47:283
-9.726,-0.168,0.397,0,0.001,0,17895,2021-01-15 19:03:47:294
-9.726,-0.168,0.397,0,0.001,0,17903,2021-01-15 19:03:47:302
-9.726,-0.168,0.397,0,0.001,0,17914,2021-01-15 19:03:47:313
-9.726,-0.168,0.397,0,0.001,0,17924,2021-01-15 19:03:47:323
-9.726,-0.168,0.397,0,0.001,0,17934,2021-01-15 19:03:47:333
-9.726,-0.168,0.397,0,0.001,0,17944,2021-01-15 19:03:47:343
-9.718,-0.163,0.39,0,0.001,0,17959,2021-01-15 19:03:47:358
-9.718,-0.163,0.39,0,0.001,0,17965,2021-01-15 19:03:47:364
-9.718,-0.163,0.39,0,0.001,0,17973,2021-01-15 19:03:47:372
-9.718,-0.163,0.39,0,0.001,0,17984,2021-01-15 19:03:47:383
-9.718,-0.163,0.39,-0.001,0.001,0,17993,2021-01-15 19:03:47:392
-9.718,-0.163,0.39,-0.001,0.001,0,18007,2021-01-15 19:03:47:406
-9.738,-0.16,0.4,-0.001,0.001,0,18015,2021-01-15 19:03:47:414
-9.738,-0.16,0.4,-0.001,0.001,0,18024,2021-01-15 19:03:47:423
-9.738,-0.16,0.4,-0.001,0.001,0,18035,2021-01-15 19:03:47:434
-9.738,-0.16,0.4,-0.001,0.001,0,18044,2021-01-15 19:03:47:443
-9.738,-0.16,0.4,-0.001,0.001,0,18054,2021-01-15 19:03:47:453
-9.738,-0.16,0.4,-0.001,0.001,0,18064,2021-01-15 19:03:47:463
-9.721,-0.151,0.395,-0.001,0.001,0,18076,2021-01-15 19:03:47:475
-9.721,-0.151,0.395,-0.001,0.001,0,18084,2021-01-15 19:03:47:483
-9.721,-0.151,0.395,-0.001,0.001,0,18095,2021-01-15 19:03:47:494
-9.721,-0.151,0.395,-0.001,0.001,0,18104,2021-01-15 19:03:47:503
-9.721,-0.151,0.395,-0.001,0,0,18114,2021-01-15 19:03:47:513
-9.721,-0.151,0.395,-0.001,0,0,18124,2021-01-15 19:03:47:523
-9.745,-0.16,0.39,-0.001,0,0,18135,2021-01-15 19:03:47:534
-9.745,-0.16,0.39,-0.001,0,0,18145,2021-01-15 19:03:47:544
-9.745,-0.16,0.39,-0.001,0,0,18154,2021-01-15 19:03:47:553
-9.745,-0.16,0.39,-0.001,0,0,18164,2021-01-15 19:03:47:563
-9.745,-0.16,0.39,-0.001,0,0,18174,2021-01-15 19:03:47:573
-9.745,-0.16,0.39,-0.001,0,0,18184,2021-01-15 19:03:47:583
-9.714,-0.16,0.397,-0.001,0,0,18193,2021-01-15 19:03:47:592
-9.714,-0.16,0.397,-0.001,0,0,18204,2021-01-15 19:03:47:603
-9.714,-0.16,0.397,-0.001,0,0,18214,2021-01-15 19:03:47:613
-9.714,-0.16,0.397,-0.001,0,0,18224,2021-01-15 19:03:47:623
-9.714,-0.16,0.397,0,0,0,18234,2021-01-15 19:03:47:633
-9.714,-0.16,0.397,0,0,0,18246,2021-01-15 19:03:47:645
-9.714,-0.165,0.39,0,0,0,18256,2021-01-15 19:03:47:655
-9.714,-0.165,0.39,0,0,0,18264,2021-01-15 19:03:47:663
-9.714,-0.165,0.39,0,0,0,18274,2021-01-15 19:03:47:673
-9.714,-0.165,0.39,0,0,0,18285,2021-01-15 19:03:47:684
-9.714,-0.165,0.39,0,0,0,18294,2021-01-15 19:03:47:693
-9.714,-0.165,0.39,0,0,0,18305,2021-01-15 19:03:47:704
-9.721,-0.187,0.378,0,0,0,18314,2021-01-15 19:03:47:713
-9.721,-0.187,0.378,0,0,0,18325,2021-01-15 19:03:47:724
-9.721,-0.187,0.378,0,0,0,18334,2021-01-15 19:03:47:733
-9.721,-0.187,0.378,0,0,0,18344,2021-01-15 19:03:47:743
-9.721,-0.187,0.378,0,0,0,18353,2021-01-15 19:03:47:752
-9.721,-0.187,0.378,0,0,0,18364,2021-01-15 19:03:47:763
-9.702,-0.158,0.402,0,0,0,18374,2021-01-15 19:03:47:773
-9.702,-0.158,0.402,0,0,0,18383,2021-01-15 19:03:47:782
-9.702,-0.158,0.402,0,0,0,18394,2021-01-15 19:03:47:793
-9.702,-0.158,0.402,0,0,0,18404,2021-01-15 19:03:47:803
-9.702,-0.158,0.402,0,0,0,18414,2021-01-15 19:03:47:813
-9.702,-0.158,0.402,0,0,0,18424,2021-01-15 19:03:47:823
-9.73,-0.175,0.383,0,0,0,18433,2021-01-15 19:03:47:832
-9.73,-0.175,0.383,0,0,0,18444,2021-01-15 19:03:47:843
-9.73,-0.175,0.383,0,0,0,18454,2021-01-15 19:03:47:853
-9.73,-0.175,0.383,0,0,0,18464,2021-01-15 19:03:47:863
-9.73,-0.175,0.383,0,0,0,18474,2021-01-15 19:03:47:873
-9.73,-0.175,0.383,0,0,0,18484,2021-01-15 19:03:47:883
-9.718,-0.168,0.39,0,0,0,18493,2021-01-15 19:03:47:892
-9.718,-0.168,0.39,0,0,0,18504,2021-01-15 19:03:47:903
-9.718,-0.168,0.39,0,0,0,18514,2021-01-15 19:03:47:913
-9.718,-0.168,0.39,0,0,0,18524,2021-01-15 19:03:47:923
-9.718,-0.168,0.39,0,0,0,18534,2021-01-15 19:03:47:933
-9.718,-0.168,0.39,0,0,0,18544,2021-01-15 19:03:47:943
-9.721,-0.153,0.395,0,0,0,18554,2021-01-15 19:03:47:953
-9.721,-0.153,0.395,0,0,0,18564,2021-01-15 19:03:47:963
-9.721,-0.153,0.395,0,0,0,18574,2021-01-15 19:03:47:973
-9.721,-0.153,0.395,0,0,0,18583,2021-01-15 19:03:47:982
-9.721,-0.153,0.395,-0.001,-0.001,0,18594,2021-01-15 19:03:47:993
-9.721,-0.153,0.395,-0.001,-0.001,0,18604,2021-01-15 19:03:48:003
-9.711,-0.148,0.388,-0.001,-0.001,0,18614,2021-01-15 19:03:48:013
-9.711,-0.148,0.388,-0.001,-0.001,0,18624,2021-01-15 19:03:48:023
-9.711,-0.148,0.388,-0.001,-0.001,0,18634,2021-01-15 19:03:48:033
-9.711,-0.148,0.388,-0.001,-0.001,0,18644,2021-01-15 19:03:48:043
-9.711,-0.148,0.388,-0.001,-0.001,0,18653,2021-01-15 19:03:48:052
-9.711,-0.148,0.388,-0.001,-0.001,0,18664,2021-01-15 19:03:48:063
-9.726,-0.156,0.388,-0.001,-0.001,0,18674,2021-01-15 19:03:48:073
-9.726,-0.156,0.388,-0.001,-0.001,0,18685,2021-01-15 19:03:48:084
-9.726,-0.156,0.388,-0.001,-0.001,0,18694,2021-01-15 19:03:48:093
-9.726,-0.156,0.388,-0.001,-0.001,0,18706,2021-01-15 19:03:48:105
-9.726,-0.156,0.388,0,-0.001,0,18714,2021-01-15 19:03:48:113
-9.726,-0.156,0.388,0,-0.001,0,18723,2021-01-15 19:03:48:122
-9.718,-0.172,0.4,0,-0.001,0,18734,2021-01-15 19:03:48:133
-9.718,-0.172,0.4,0,-0.001,0,18743,2021-01-15 19:03:48:142
-9.718,-0.172,0.4,0,-0.001,0,18756,2021-01-15 19:03:48:155
-9.718,-0.172,0.4,0,-0.001,0,18763,2021-01-15 19:03:48:162
-9.718,-0.172,0.4,0,-0.001,0,18774,2021-01-15 19:03:48:173
-9.718,-0.172,0.4,0,-0.001,0,18784,2021-01-15 19:03:48:183
-9.716,-0.158,0.405,0,-0.001,0,18794,2021-01-15 19:03:48:193
-9.716,-0.158,0.405,0,-0.001,0,18806,2021-01-15 19:03:48:205
-9.716,-0.158,0.405,0,-0.001,0,18813,2021-01-15 19:03:48:212
-9.716,-0.158,0.405,0,-0.001,0,18826,2021-01-15 19:03:48:225
-9.716,-0.158,0.405,0,-0.001,0,18834,2021-01-15 19:03:48:233
-9.716,-0.158,0.405,0,-0.001,0,18844,2021-01-15 19:03:48:243
-9.718,-0.168,0.402,0,-0.001,0,18854,2021-01-15 19:03:48:253
-9.718,-0.168,0.402,0,-0.001,0,18865,2021-01-15 19:03:48:264
-9.718,-0.168,0.402,0,-0.001,0,18877,2021-01-15 19:03:48:276
-9.718,-0.168,0.402,0,-0.001,0,18884,2021-01-15 19:03:48:283
-9.718,-0.168,0.402,0,-0.001,0,18894,2021-01-15 19:03:48:293
-9.718,-0.168,0.402,0,-0.001,0,18905,2021-01-15 19:03:48:304
-9.735,-0.172,0.388,0,-0.001,0,18914,2021-01-15 19:03:48:313
-9.735,-0.172,0.388,0,-0.001,0,18924,2021-01-15 19:03:48:323
-9.735,-0.172,0.388,0,-0.001,0,18934,2021-01-15 19:03:48:333
-9.735,-0.172,0.388,0,-0.001,0,18945,2021-01-15 19:03:48:344
-9.735,-0.172,0.388,0,0,0,18954,2021-01-15 19:03:48:353
-9.735,-0.172,0.388,0,0,0,18964,2021-01-15 19:03:48:363
-9.721,-0.17,0.397,0,0,0,18973,2021-01-15 19:03:48:372
-9.721,-0.17,0.397,0,0,0,18984,2021-01-15 19:03:48:383
-9.721,-0.17,0.397,0,0,0,18995,2021-01-15 19:03:48:394
-9.721,-0.17,0.397,0,0,0,19003,2021-01-15 19:03:48:402
-9.721,-0.17,0.397,0,0,0,19013,2021-01-15 19:03:48:412
-9.721,-0.17,0.397,0,0,0,19024,2021-01-15 19:03:48:423
-9.718,-0.172,0.407,0,0,0,19034,2021-01-15 19:03:48:433
-9.718,-0.172,0.407,0,0,0,19044,2021-01-15 19:03:48:443
-9.718,-0.172,0.407,0,0,0,19054,2021-01-15 19:03:48:453
-9.718,-0.172,0.407,0,0,0,19063,2021-01-15 19:03:48:462
-9.718,-0.172,0.407,0.001,0,0,19075,2021-01-15 19:03:48:474
-9.718,-0.172,0.407,0.001,0,0,19084,2021-01-15 19:03:48:483
-9.723,-0.175,0.4,0.001,0,0,19094,2021-01-15 19:03:48:493
-9.723,-0.175,0.4,0.001,0,0,19105,2021-01-15 19:03:48:504
-9.723,-0.175,0.4,0.001,0,0,19114,2021-01-15 19:03:48:513
-9.723,-0.175,0.4,0.001,0,0,19124,2021-01-15 19:03:48:523
-9.723,-0.175,0.4,0.001,0,0,19134,2021-01-15 19:03:48:533
-9.723,-0.175,0.4,0.001,0,0,19144,2021-01-15 19:03:48:543
-9.728,-0.165,0.381,0.001,0,0,19156,2021-01-15 19:03:48:555
-9.728,-0.165,0.381,0.001,0,0,19164,2021-01-15 19:03:48:563
-9.728,-0.165,0.381,0.001,0,0,19174,2021-01-15 19:03:48:573
-9.728,-0.165,0.381,0.001,0,0,19184,2021-01-15 19:03:48:583
-9.728,-0.165,0.381,0.001,0,0,19197,2021-01-15 19:03:48:596
-9.728,-0.165,0.381,0,0,0,19204,2021-01-15 19:03:48:603
-9.728,-0.165,0.381,0,0,0,19214,2021-01-15 19:03:48:613
-9.73,-0.172,0.393,0,0,0,19224,2021-01-15 19:03:48:623
-9.73,-0.172,0.393,0,0,0,19234,2021-01-15 19:03:48:633
-9.73,-0.172,0.393,0,0,0,19246,2021-01-15 19:03:48:645
-9.73,-0.172,0.393,0,0,0,19255,2021-01-15 19:03:48:654
-9.73,-0.172,0.393,0,0,0,19263,2021-01-15 19:03:48:662
-9.73,-0.172,0.393,0,0,0,19274,2021-01-15 19:03:48:673
-9.73,-0.172,0.393,0,0,0,19286,2021-01-15 19:03:48:685
-9.73,-0.177,0.39,0,0,0,19294,2021-01-15 19:03:48:693
-9.73,-0.177,0.39,0,0,0,19304,2021-01-15 19:03:48:703
-9.73,-0.177,0.39,0.001,0,0,19315,2021-01-15 19:03:48:714
-9.73,-0.177,0.39,0.001,0,0,19324,2021-01-15 19:03:48:723
-9.73,-0.177,0.39,0.001,0,0,19334,2021-01-15 19:03:48:733
-9.73,-0.177,0.39,0.001,0,0,19345,2021-01-15 19:03:48:744
-9.716,-0.16,0.397,0.001,0,0,19354,2021-01-15 19:03:48:753
-9.716,-0.16,0.397,0.001,0,0,19364,2021-01-15 19:03:48:763
-9.716,-0.16,0.397,0.001,0,0,19374,2021-01-15 19:03:48:773
-9.716,-0.16,0.397,0.001,0,0,19384,2021-01-15 19:03:48:783
-9.716,-0.16,0.397,0.001,0,0,19394,2021-01-15 19:03:48:793
-9.716,-0.16,0.397,0.001,0,0,19405,2021-01-15 19:03:48:804
-9.711,-0.182,0.393,0.001,0,0,19416,2021-01-15 19:03:48:815
-9.711,-0.182,0.393,0.001,0,0,19426,2021-01-15 19:03:48:825
-9.711,-0.182,0.393,0,0,0,19433,2021-01-15 19:03:48:832
-9.711,-0.182,0.393,0,0,0,19445,2021-01-15 19:03:48:844
-9.711,-0.182,0.393,0,0,0,19455,2021-01-15 19:03:48:854
-9.711,-0.182,0.393,0,0,0,19464,2021-01-15 19:03:48:863
-9.704,-0.172,0.376,0,0,0,19474,2021-01-15 19:03:48:873
-9.704,-0.172,0.376,0,0,0,19483,2021-01-15 19:03:48:882
-9.704,-0.172,0.376,0,0,0,19495,2021-01-15 19:03:48:894
-9.704,-0.172,0.376,0,0,0,19503,2021-01-15 19:03:48:902
-9.704,-0.172,0.376,0,0,0,19514,2021-01-15 19:03:48:913
-9.704,-0.172,0.376,0,0,0,19524,2021-01-15 19:03:48:923
-9.73,-0.146,0.414,0,0,0,19534,2021-01-15 19:03:48:933
-9.73,-0.146,0.414,0,0,0,19544,2021-01-15 19:03:48:943
-9.73,-0.146,0.414,-0.001,0.001,0,19554,2021-01-15 19:03:48:953
-9.73,-0.146,0.414,-0.001,0.001,0,19564,2021-01-15 19:03:48:963
-9.73,-0.146,0.414,-0.001,0.001,0,19575,2021-01-15 19:03:48:974
-9.73,-0.146,0.414,-0.001,0.001,0,19584,2021-01-15 19:03:48:983
-9.718,-0.177,0.397,-0.001,0.001,0,19594,2021-01-15 19:03:48:993
-9.718,-0.177,0.397,-0.001,0.001,0,19604,2021-01-15 19:03:49:003
-9.718,-0.177,0.397,-0.001,0.001,0,19613,2021-01-15 19:03:49:012
-9.718,-0.177,0.397,-0.001,0.001,0,19624,2021-01-15 19:03:49:023
-9.718,-0.177,0.397,-0.001,0.001,0,19634,2021-01-15 19:03:49:033
-9.718,-0.177,0.397,-0.001,0.001,0,19644,2021-01-15 19:03:49:043
-9.718,-0.156,0.407,-0.001,0.001,0,19654,2021-01-15 19:03:49:053
-9.718,-0.156,0.407,-0.001,0.001,0,19664,2021-01-15 19:03:49:063
-9.718,-0.156,0.407,-0.001,0,0,19674,2021-01-15 19:03:49:073
-9.718,-0.156,0.407,-0.001,0,0,19684,2021-01-15 19:03:49:083
-9.718,-0.156,0.407,-0.001,0,0,19694,2021-01-15 19:03:49:093
-9.718,-0.156,0.407,-0.001,0,0,19703,2021-01-15 19:03:49:102
-9.733,-0.151,0.407,-0.001,0,0,19714,2021-01-15 19:03:49:113
-9.733,-0.151,0.407,-0.001,0,0,19724,2021-01-15 19:03:49:123
-9.733,-0.151,0.407,-0.001,0,0,19733,2021-01-15 19:03:49:132
-9.733,-0.151,0.407,-0.001,0,0,19744,2021-01-15 19:03:49:143
-9.733,-0.151,0.407,-0.001,0,0,19754,2021-01-15 19:03:49:153
-9.733,-0.151,0.407,-0.001,0,0,19763,2021-01-15 19:03:49:162
-9.714,-0.168,0.39,-0.001,0,0,19774,2021-01-15 19:03:49:173
-9.714,-0.168,0.39,-0.001,0,0,19784,2021-01-15 19:03:49:183
-9.714,-0.168,0.39,-0.001,-0.001,0,19795,2021-01-15 19:03:49:194
-9.714,-0.168,0.39,-0.001,-0.001,0,19804,2021-01-15 19:03:49:203
-9.714,-0.168,0.39,-0.001,-0.001,0,19813,2021-01-15 19:03:49:212
-9.714,-0.168,0.39,-0.001,-0.001,0,19825,2021-01-15 19:03:49:224
-9.718,-0.151,0.393,-0.001,-0.001,0,19834,2021-01-15 19:03:49:233
-9.718,-0.151,0.393,-0.001,-0.001,0,19844,2021-01-15 19:03:49:243
-9.718,-0.151,0.393,-0.001,-0.001,0,19854,2021-01-15 19:03:49:253
-9.718,-0.151,0.393,-0.001,-0.001,0,19864,2021-01-15 19:03:49:263
-9.718,-0.151,0.393,-0.001,-0.001,0,19873,2021-01-15 19:03:49:272
-9.718,-0.151,0.393,-0.001,-0.001,0,19884,2021-01-15 19:03:49:283
-9.697,-0.168,0.395,-0.001,-0.001,0,19894,2021-01-15 19:03:49:293
-9.697,-0.168,0.395,-0.001,-0.001,0,19904,2021-01-15 19:03:49:303
-9.697,-0.168,0.395,0,0,0,19916,2021-01-15 19:03:49:315
-9.697,-0.168,0.395,0,0,0,19924,2021-01-15 19:03:49:323
-9.697,-0.168,0.395,0,0,0,19934,2021-01-15 19:03:49:333
-9.697,-0.168,0.395,0,0,0,19944,2021-01-15 19:03:49:343
-9.728,-0.172,0.393,0,0,0,19954,2021-01-15 19:03:49:353
-9.728,-0.172,0.393,0,0,0,19964,2021-01-15 19:03:49:363
-9.728,-0.172,0.393,0,0,0,19973,2021-01-15 19:03:49:372
-9.728,-0.172,0.393,0,0,0,19984,2021-01-15 19:03:49:383
-9.728,-0.172,0.393,0,0,0,19994,2021-01-15 19:03:49:393
-9.728,-0.172,0.393,0,0,0,20004,2021-01-15 19:03:49:403
-9.709,-0.165,0.402,0,0,0,20014,2021-01-15 19:03:49:413
-9.709,-0.165,0.402,0,0,0,20024,2021-01-15 19:03:49:423
-9.709,-0.165,0.402,0.001,0,0,20034,2021-01-15 19:03:49:433
-9.709,-0.165,0.402,0.001,0,0,20045,2021-01-15 19:03:49:444
-9.709,-0.165,0.402,0.001,0,0,20053,2021-01-15 19:03:49:452
-9.709,-0.165,0.402,0.001,0,0,20064,2021-01-15 19:03:49:463
-9.726,-0.148,0.388,0.001,0,0,20074,2021-01-15 19:03:49:473
-9.726,-0.148,0.388,0.001,0,0,20084,2021-01-15 19:03:49:483
-9.726,-0.148,0.388,0.001,0,0,20093,2021-01-15 19:03:49:492
-9.726,-0.148,0.388,0.001,0,0,20104,2021-01-15 19:03:49:503
-9.726,-0.148,0.388,0.001,0,0,20114,2021-01-15 19:03:49:513
-9.726,-0.148,0.388,0.001,0,0,20124,2021-01-15 19:03:49:523
-9.73,-0.165,0.395,0.001,0,0,20133,2021-01-15 19:03:49:532
-9.73,-0.165,0.395,0.001,0,0,20144,2021-01-15 19:03:49:543
-9.73,-0.165,0.395,0,0,0,20154,2021-01-15 19:03:49:553
-9.73,-0.165,0.395,0,0,0,20165,2021-01-15 19:03:49:564
-9.73,-0.165,0.395,0,0,0,20175,2021-01-15 19:03:49:574
-9.73,-0.165,0.395,0,0,0,20184,2021-01-15 19:03:49:583
-9.728,-0.177,0.405,0,0,0,20195,2021-01-15 19:03:49:594
-9.728,-0.177,0.405,0,0,0,20204,2021-01-15 19:03:49:603
-9.728,-0.177,0.405,0,0,0,20214,2021-01-15 19:03:49:613
-9.728,-0.177,0.405,0,0,0,20224,2021-01-15 19:03:49:623
-9.728,-0.177,0.405,0,0,0,20234,2021-01-15 19:03:49:633
-9.728,-0.177,0.405,0,0,0,20244,2021-01-15 19:03:49:643
-9.742,-0.168,0.381,0,0,0,20255,2021-01-15 19:03:49:654
-9.742,-0.168,0.381,0,0,0,20266,2021-01-15 19:03:49:665
-9.742,-0.168,0.381,-0.001,-0.001,0,20274,2021-01-15 19:03:49:673
-9.742,-0.168,0.381,-0.001,-0.001,0,20284,2021-01-15 19:03:49:683
-9.742,-0.168,0.381,-0.001,-0.001,0,20294,2021-01-15 19:03:49:693
-9.742,-0.168,0.381,-0.001,-0.001,0,20304,2021-01-15 19:03:49:703
-9.749,-0.156,0.402,-0.001,-0.001,0,20314,2021-01-15 19:03:49:713
-9.749,-0.156,0.402,-0.001,-0.001,0,20325,2021-01-15 19:03:49:724
-9.749,-0.156,0.402,-0.001,-0.001,0,20337,2021-01-15 19:03:49:736
-9.749,-0.156,0.402,-0.001,-0.001,0,20344,2021-01-15 19:03:49:743
-9.749,-0.156,0.402,-0.001,-0.001,0,20354,2021-01-15 19:03:49:753
-9.749,-0.156,0.402,-0.001,-0.001,0,20365,2021-01-15 19:03:49:764
-9.714,-0.16,0.414,-0.001,-0.001,0,20376,2021-01-15 19:03:49:775
-9.714,-0.16,0.414,-0.001,-0.001,0,20384,2021-01-15 19:03:49:783
-9.714,-0.16,0.414,0,0,0,20394,2021-01-15 19:03:49:793
-9.714,-0.16,0.414,0,0,0,20404,2021-01-15 19:03:49:803
-9.714,-0.16,0.414,0,0,0,20415,2021-01-15 19:03:49:814
-9.714,-0.16,0.414,0,0,0,20424,2021-01-15 19:03:49:823
-9.723,-0.182,0.378,0,0,0,20434,2021-01-15 19:03:49:833
-9.723,-0.182,0.378,0,0,0,20444,2021-01-15 19:03:49:843
-9.723,-0.182,0.378,0,0,0,20454,2021-01-15 19:03:49:853
-9.723,-0.182,0.378,0,0,0,20464,2021-01-15 19:03:49:863
-9.723,-0.182,0.378,0,0,0,20474,2021-01-15 19:03:49:873
-9.723,-0.182,0.378,0,0,0,20483,2021-01-15 19:03:49:882
-9.716,-0.16,0.397,0,0,0,20495,2021-01-15 19:03:49:894
-9.716,-0.16,0.397,0,0,0,20504,2021-01-15 19:03:49:903
-9.716,-0.16,0.397,0,0,0,20514,2021-01-15 19:03:49:913
-9.716,-0.16,0.397,0,0,0,20524,2021-01-15 19:03:49:923
-9.716,-0.16,0.397,0,0,0,20534,2021-01-15 19:03:49:933
-9.716,-0.16,0.397,0,0,0,20544,2021-01-15 19:03:49:943
-9.697,-0.158,0.412,0,0,0,20553,2021-01-15 19:03:49:952
-9.697,-0.158,0.412,0,0,0,20564,2021-01-15 19:03:49:963
-9.697,-0.158,0.412,0,0,0,20574,2021-01-15 19:03:49:973
-9.697,-0.158,0.412,0,0,0,20584,2021-01-15 19:03:49:983
-9.697,-0.158,0.412,0,0,0,20594,2021-01-15 19:03:49:993
-9.706,-0.17,0.395,0,0,0,20614,2021-01-15 19:03:50:013
-9.706,-0.17,0.395,0,0,0,20614,2021-01-15 19:03:50:013
-9.706,-0.17,0.395,0,0,0,20624,2021-01-15 19:03:50:023
-9.706,-0.17,0.395,0,0,0,20634,2021-01-15 19:03:50:033
-9.706,-0.17,0.395,0,0,0,20644,2021-01-15 19:03:50:043
-9.706,-0.17,0.395,0,0,0,20653,2021-01-15 19:03:50:052
-9.706,-0.17,0.395,0,0,0,20667,2021-01-15 19:03:50:066
-9.726,-0.175,0.378,0,0,0,20674,2021-01-15 19:03:50:073
-9.726,-0.175,0.378,0,0,0,20684,2021-01-15 19:03:50:083
-9.726,-0.175,0.378,0,0,0,20694,2021-01-15 19:03:50:093
-9.726,-0.175,0.378,0,0,0,20704,2021-01-15 19:03:50:103
-9.726,-0.175,0.378,0,0,0,20713,2021-01-15 19:03:50:112
-9.726,-0.175,0.378,0,0,0,20724,2021-01-15 19:03:50:123
-9.726,-0.175,0.378,0,0,0,20734,2021-01-15 19:03:50:133
-9.692,-0.189,0.376,0,0,0,20744,2021-01-15 19:03:50:143
-9.692,-0.189,0.376,0,0,0,20754,2021-01-15 19:03:50:153
-9.692,-0.189,0.376,0,-0.001,0,20766,2021-01-15 19:03:50:165
-9.692,-0.189,0.376,0,-0.001,0,20775,2021-01-15 19:03:50:174
-9.692,-0.189,0.376,0,-0.001,0,20783,2021-01-15 19:03:50:182
-9.692,-0.189,0.376,0,-0.001,0,20794,2021-01-15 19:03:50:193
-9.692,-0.189,0.376,0,-0.001,0,20804,2021-01-15 19:03:50:203
-9.728,-0.165,0.385,0,-0.001,0,20814,2021-01-15 19:03:50:213
-9.728,-0.165,0.385,0,-0.001,0,20826,2021-01-15 19:03:50:225
-9.728,-0.165,0.385,0,-0.001,0,20834,2021-01-15 19:03:50:233
-9.728,-0.165,0.385,0,-0.001,0,20844,2021-01-15 19:03:50:243
-9.728,-0.165,0.385,0,-0.001,0,20854,2021-01-15 19:03:50:253
-9.728,-0.165,0.385,0,-0.001,0,20863,2021-01-15 19:03:50:262
-9.718,-0.17,0.4,0,-0.001,0,20874,2021-01-15 19:03:50:273
-9.718,-0.17,0.4,0,-0.001,0,20884,2021-01-15 19:03:50:283
-9.718,-0.17,0.4,0,-0.001,0,20894,2021-01-15 19:03:50:293
-9.718,-0.17,0.4,0,-0.001,0,20904,2021-01-15 19:03:50:303
-9.718,-0.17,0.4,0,-0.001,0,20914,2021-01-15 19:03:50:313
-9.718,-0.17,0.4,0,-0.001,0,20924,2021-01-15 19:03:50:323
-9.714,-0.172,0.393,0,-0.001,0,20934,2021-01-15 19:03:50:333
-9.714,-0.172,0.393,0,-0.001,0,20944,2021-01-15 19:03:50:343
-9.714,-0.172,0.393,0,-0.001,0,20954,2021-01-15 19:03:50:353
-9.714,-0.172,0.393,0,-0.001,0,20964,2021-01-15 19:03:50:363
-9.714,-0.172,0.393,0,-0.001,0,20974,2021-01-15 19:03:50:373
-9.714,-0.172,0.393,0,-0.001,0,20984,2021-01-15 19:03:50:383
-9.716,-0.16,0.39,0,-0.001,0,20994,2021-01-15 19:03:50:393
-9.716,-0.16,0.39,0,-0.001,0,21004,2021-01-15 19:03:50:403
-9.716,-0.16,0.39,0,-0.001,0,21015,2021-01-15 19:03:50:414
-9.716,-0.16,0.39,0,-0.001,0,21024,2021-01-15 19:03:50:423
-9.716,-0.16,0.39,0,-0.001,0,21034,2021-01-15 19:03:50:433
-9.716,-0.16,0.39,0,-0.001,0,21045,2021-01-15 19:03:50:444
-9.716,-0.165,0.402,0,-0.001,0,21053,2021-01-15 19:03:50:452
-9.716,-0.165,0.402,0,-0.001,0,21063,2021-01-15 19:03:50:462
