ACCELEROMETER X (m/sֲ²),ACCELEROMETER Y (m/sֲ²),ACCELEROMETER Z (m/sֲ²),GYROSCOPE X (rad/s),GYROSCOPE Y (rad/s),GYROSCOPE Z (rad/s),Time since start in ms ,YYYY-MO-DD HH-MI-SS_SSS
0.177,-9.795,-0.055,0,0,0,19,2021-01-15 19:04:56:544
0.177,-9.795,-0.055,0,0,0,28,2021-01-15 19:04:56:553
0.177,-9.795,-0.055,0,0,0,38,2021-01-15 19:04:56:563
0.177,-9.795,-0.055,0,0,0,48,2021-01-15 19:04:56:573
0.177,-9.795,-0.055,0,0,0,57,2021-01-15 19:04:56:582
0.177,-9.795,-0.055,0,0,0,68,2021-01-15 19:04:56:593
0.177,-9.795,-0.055,0,0,0,78,2021-01-15 19:04:56:603
0.165,-9.788,-0.055,0,0,0,88,2021-01-15 19:04:56:613
0.165,-9.788,-0.055,0,0,0,98,2021-01-15 19:04:56:623
0.165,-9.788,-0.055,0,0,0,108,2021-01-15 19:04:56:633
0.165,-9.788,-0.055,0,0,0,117,2021-01-15 19:04:56:642
0.165,-9.788,-0.055,0,0,0,128,2021-01-15 19:04:56:653
0.165,-9.788,-0.055,0,0,0,138,2021-01-15 19:04:56:663
0.172,-9.781,-0.043,0,0,0,148,2021-01-15 19:04:56:673
0.172,-9.781,-0.043,0,0,0,157,2021-01-15 19:04:56:682
0.172,-9.781,-0.043,0,0,0,167,2021-01-15 19:04:56:692
0.172,-9.781,-0.043,0,0,0,178,2021-01-15 19:04:56:703
0.172,-9.781,-0.043,0,0,0,188,2021-01-15 19:04:56:713
0.172,-9.781,-0.043,0,0,0,198,2021-01-15 19:04:56:723
0.175,-9.781,-0.034,0,0,0,207,2021-01-15 19:04:56:732
0.175,-9.781,-0.034,0,0,0,218,2021-01-15 19:04:56:743
0.175,-9.781,-0.034,0,0,0,227,2021-01-15 19:04:56:752
0.175,-9.781,-0.034,0,0,0,240,2021-01-15 19:04:56:765
0.175,-9.781,-0.034,0,0,0,248,2021-01-15 19:04:56:773
0.175,-9.781,-0.034,0,0,0,258,2021-01-15 19:04:56:783
0.168,-9.8,-0.055,0,0,0,268,2021-01-15 19:04:56:793
0.168,-9.8,-0.055,0,0,0,278,2021-01-15 19:04:56:803
0.168,-9.8,-0.055,0,0,0,288,2021-01-15 19:04:56:813
0.168,-9.8,-0.055,0,0,0,300,2021-01-15 19:04:56:825
0.168,-9.8,-0.055,0,0,0,314,2021-01-15 19:04:56:839
0.168,-9.8,-0.055,0,0,0,318,2021-01-15 19:04:56:843
0.184,-9.788,-0.045,0,0,0,329,2021-01-15 19:04:56:854
0.184,-9.788,-0.045,0,0,0,338,2021-01-15 19:04:56:863
0.184,-9.788,-0.045,0,0,0,348,2021-01-15 19:04:56:873
0.184,-9.788,-0.045,0,0,0,364,2021-01-15 19:04:56:889
0.184,-9.788,-0.045,0,0,0,367,2021-01-15 19:04:56:892
0.184,-9.788,-0.045,0,0,0,379,2021-01-15 19:04:56:904
0.177,-9.785,-0.031,0,0,0,388,2021-01-15 19:04:56:913
0.177,-9.785,-0.031,0,0,0,398,2021-01-15 19:04:56:923
0.177,-9.785,-0.031,0,0,0,407,2021-01-15 19:04:56:932
0.177,-9.785,-0.031,0,0,0,419,2021-01-15 19:04:56:944
0.177,-9.785,-0.031,0,0,0,428,2021-01-15 19:04:56:953
0.177,-9.785,-0.031,0,0,0,438,2021-01-15 19:04:56:963
0.175,-9.773,-0.017,0,0,0,447,2021-01-15 19:04:56:972
0.175,-9.773,-0.017,0,0,0,458,2021-01-15 19:04:56:983
0.175,-9.773,-0.017,0,0,0,468,2021-01-15 19:04:56:993
0.175,-9.773,-0.017,0,0,0,479,2021-01-15 19:04:57:004
0.175,-9.773,-0.017,0,0,0,490,2021-01-15 19:04:57:015
0.175,-9.773,-0.017,0,0,0,498,2021-01-15 19:04:57:023
0.163,-9.795,-0.048,0,0,0,509,2021-01-15 19:04:57:034
0.163,-9.795,-0.048,0,0,0,529,2021-01-15 19:04:57:054
0.163,-9.795,-0.048,0,0,0,530,2021-01-15 19:04:57:055
0.163,-9.795,-0.048,0,0,0,538,2021-01-15 19:04:57:063
0.163,-9.795,-0.048,0,0,0,548,2021-01-15 19:04:57:073
0.163,-9.795,-0.048,0,0,0,561,2021-01-15 19:04:57:086
0.175,-9.785,-0.062,0,0,0,569,2021-01-15 19:04:57:094
0.175,-9.785,-0.062,0,0,0,581,2021-01-15 19:04:57:106
0.175,-9.785,-0.062,0,0,0.001,588,2021-01-15 19:04:57:113
0.175,-9.785,-0.062,0,0,0.001,598,2021-01-15 19:04:57:123
0.175,-9.785,-0.062,0,0,0.001,608,2021-01-15 19:04:57:133
0.175,-9.785,-0.062,0,0,0.001,620,2021-01-15 19:04:57:145
0.187,-9.797,-0.034,0,0,0.001,627,2021-01-15 19:04:57:152
0.187,-9.797,-0.034,0,0,0.001,639,2021-01-15 19:04:57:164
0.187,-9.797,-0.034,0,0,0.001,647,2021-01-15 19:04:57:172
0.187,-9.797,-0.034,0,0,0.001,659,2021-01-15 19:04:57:184
0.187,-9.797,-0.034,0,0,0.001,668,2021-01-15 19:04:57:193
0.165,-9.8,-0.031,0,0,0.001,678,2021-01-15 19:04:57:203
0.165,-9.8,-0.031,0,0,0.001,688,2021-01-15 19:04:57:213
0.165,-9.8,-0.031,0,0,0,719,2021-01-15 19:04:57:244
0.165,-9.8,-0.031,0,0,0,721,2021-01-15 19:04:57:246
0.165,-9.8,-0.031,0,0,0,721,2021-01-15 19:04:57:246
0.165,-9.8,-0.031,0,0,0,728,2021-01-15 19:04:57:253
0.165,-9.8,-0.031,0,0,0,738,2021-01-15 19:04:57:263
0.163,-9.788,-0.034,0,0,0,748,2021-01-15 19:04:57:273
0.163,-9.788,-0.034,0,0,0,758,2021-01-15 19:04:57:283
0.163,-9.788,-0.034,0,0,0,769,2021-01-15 19:04:57:294
0.163,-9.788,-0.034,0,0,0,780,2021-01-15 19:04:57:305
0.163,-9.788,-0.034,0,0,0,788,2021-01-15 19:04:57:313
0.163,-9.788,-0.034,0,0,0,798,2021-01-15 19:04:57:323
0.175,-9.79,-0.048,0,0,0,808,2021-01-15 19:04:57:333
0.175,-9.79,-0.048,0,0,0,819,2021-01-15 19:04:57:344
0.175,-9.79,-0.048,0,0,0,828,2021-01-15 19:04:57:353
0.175,-9.79,-0.048,0,0,0,838,2021-01-15 19:04:57:363
0.175,-9.79,-0.048,0,0,0,848,2021-01-15 19:04:57:373
0.175,-9.79,-0.048,0,0,0,858,2021-01-15 19:04:57:383
0.165,-9.79,-0.048,0,0,0,868,2021-01-15 19:04:57:393
0.165,-9.79,-0.048,0,0,0,878,2021-01-15 19:04:57:403
0.165,-9.79,-0.048,0,0,0,888,2021-01-15 19:04:57:413
0.165,-9.79,-0.048,0,0,0,901,2021-01-15 19:04:57:426
0.165,-9.79,-0.048,0,0,0,912,2021-01-15 19:04:57:437
0.165,-9.79,-0.048,0,0,0,919,2021-01-15 19:04:57:444
0.168,-9.793,-0.065,0,0,0,928,2021-01-15 19:04:57:453
0.168,-9.793,-0.065,0,0,0,938,2021-01-15 19:04:57:463
0.168,-9.793,-0.065,0,0,0,948,2021-01-15 19:04:57:473
0.168,-9.793,-0.065,0,0,0,959,2021-01-15 19:04:57:484
0.168,-9.793,-0.065,0,0,0,968,2021-01-15 19:04:57:493
0.168,-9.793,-0.065,0,0,0,978,2021-01-15 19:04:57:503
0.16,-9.8,-0.062,0,0,0,988,2021-01-15 19:04:57:513
0.16,-9.8,-0.062,0,0,0,997,2021-01-15 19:04:57:522
0.16,-9.8,-0.062,0,0,0,1008,2021-01-15 19:04:57:533
0.16,-9.8,-0.062,0,0,0,1018,2021-01-15 19:04:57:543
0.16,-9.8,-0.062,0,0,0,1028,2021-01-15 19:04:57:553
0.16,-9.8,-0.062,0,0,0,1039,2021-01-15 19:04:57:564
0.158,-9.79,-0.041,0,0,0,1048,2021-01-15 19:04:57:573
0.158,-9.79,-0.041,0,0,0,1058,2021-01-15 19:04:57:583
0.158,-9.79,-0.041,0,0,0,1068,2021-01-15 19:04:57:593
0.158,-9.79,-0.041,0,0,0,1078,2021-01-15 19:04:57:603
0.158,-9.79,-0.041,0,0,0,1088,2021-01-15 19:04:57:613
0.158,-9.79,-0.041,0,0,0,1100,2021-01-15 19:04:57:625
0.156,-9.8,-0.074,0,0,0,1108,2021-01-15 19:04:57:633
0.156,-9.8,-0.074,0,0,0,1118,2021-01-15 19:04:57:643
0.156,-9.8,-0.074,0,0,0,1128,2021-01-15 19:04:57:653
0.156,-9.8,-0.074,0,0,0,1138,2021-01-15 19:04:57:663
0.156,-9.8,-0.074,0,0,0,1147,2021-01-15 19:04:57:672
0.156,-9.8,-0.074,0,0,0,1160,2021-01-15 19:04:57:685
0.182,-9.783,-0.045,0,0,0,1168,2021-01-15 19:04:57:693
0.182,-9.783,-0.045,0,0,0,1178,2021-01-15 19:04:57:703
0.182,-9.783,-0.045,0,0,0,1188,2021-01-15 19:04:57:713
0.182,-9.783,-0.045,0,0,0,1203,2021-01-15 19:04:57:728
0.182,-9.783,-0.045,0,0,0,1209,2021-01-15 19:04:57:734
0.182,-9.783,-0.045,0,0,0,1218,2021-01-15 19:04:57:743
0.163,-9.79,-0.038,0,0,0,1228,2021-01-15 19:04:57:753
0.163,-9.79,-0.038,0,0,0,1238,2021-01-15 19:04:57:763
0.163,-9.79,-0.038,0,0,0,1248,2021-01-15 19:04:57:773
0.163,-9.79,-0.038,0,0,0,1258,2021-01-15 19:04:57:783
0.163,-9.79,-0.038,0,0,0,1268,2021-01-15 19:04:57:793
0.163,-9.79,-0.038,0,0,0,1278,2021-01-15 19:04:57:803
0.175,-9.79,-0.029,0,0,0,1288,2021-01-15 19:04:57:813
0.175,-9.79,-0.029,0,0,0,1298,2021-01-15 19:04:57:823
0.175,-9.79,-0.029,0,0,0,1309,2021-01-15 19:04:57:834
0.175,-9.79,-0.029,0,0,0,1321,2021-01-15 19:04:57:846
0.175,-9.79,-0.029,0,0,0,1328,2021-01-15 19:04:57:853
0.175,-9.79,-0.029,0,0,0,1338,2021-01-15 19:04:57:863
0.156,-9.778,-0.034,0,0,0,1347,2021-01-15 19:04:57:872
0.156,-9.778,-0.034,0,0,0,1359,2021-01-15 19:04:57:884
0.156,-9.778,-0.034,0,0,0,1368,2021-01-15 19:04:57:893
0.156,-9.778,-0.034,0,0,0,1378,2021-01-15 19:04:57:903
0.156,-9.778,-0.034,0,0,0,1388,2021-01-15 19:04:57:913
0.156,-9.778,-0.034,0,0,0,1398,2021-01-15 19:04:57:923
0.163,-9.802,-0.05,0,0,0,1408,2021-01-15 19:04:57:933
0.163,-9.802,-0.05,0,0,0,1418,2021-01-15 19:04:57:943
0.163,-9.802,-0.05,0,0,0,1429,2021-01-15 19:04:57:954
0.163,-9.802,-0.05,0,0,0,1439,2021-01-15 19:04:57:964
0.163,-9.802,-0.05,0,0,0,1448,2021-01-15 19:04:57:973
0.163,-9.802,-0.05,0,0,0,1460,2021-01-15 19:04:57:985
0.17,-9.795,-0.036,0,0,0,1468,2021-01-15 19:04:57:993
0.17,-9.795,-0.036,0,0,0,1478,2021-01-15 19:04:58:003
0.17,-9.795,-0.036,0,0,0,1488,2021-01-15 19:04:58:013
0.17,-9.795,-0.036,0,0,0,1498,2021-01-15 19:04:58:023
0.17,-9.795,-0.036,0,0,0,1508,2021-01-15 19:04:58:033
0.177,-9.776,-0.06,0,0,0,1522,2021-01-15 19:04:58:047
0.177,-9.776,-0.06,0,0,0,1528,2021-01-15 19:04:58:053
0.177,-9.776,-0.06,0,0,0,1538,2021-01-15 19:04:58:063
0.177,-9.776,-0.06,0,0,0,1548,2021-01-15 19:04:58:073
0.177,-9.776,-0.06,0,0,0,1557,2021-01-15 19:04:58:082
0.177,-9.776,-0.06,0,0,0,1568,2021-01-15 19:04:58:093
0.177,-9.797,-0.043,0,0,0,1584,2021-01-15 19:04:58:109
0.177,-9.797,-0.043,0,0,0,1588,2021-01-15 19:04:58:113
0.177,-9.797,-0.043,0,0,0,1599,2021-01-15 19:04:58:124
0.177,-9.797,-0.043,0,0,0,1608,2021-01-15 19:04:58:133
0.177,-9.797,-0.043,0,0,0,1618,2021-01-15 19:04:58:143
0.177,-9.797,-0.043,0,0,0,1628,2021-01-15 19:04:58:153
0.177,-9.797,-0.043,0,0,0,1638,2021-01-15 19:04:58:163
0.172,-9.785,-0.043,0,0,0,1648,2021-01-15 19:04:58:173
0.172,-9.785,-0.043,0,0,0,1659,2021-01-15 19:04:58:184
0.172,-9.785,-0.043,0,0,0,1667,2021-01-15 19:04:58:192
0.172,-9.785,-0.043,0,0,0,1681,2021-01-15 19:04:58:206
0.172,-9.785,-0.043,0,0,0,1688,2021-01-15 19:04:58:213
0.172,-9.785,-0.043,0,0,0,1698,2021-01-15 19:04:58:223
0.175,-9.783,-0.053,0,0,0,1714,2021-01-15 19:04:58:239
0.175,-9.783,-0.053,0,0,0,1717,2021-01-15 19:04:58:242
0.175,-9.783,-0.053,0,0,0,1728,2021-01-15 19:04:58:253
0.175,-9.783,-0.053,0,0,0,1739,2021-01-15 19:04:58:264
0.175,-9.783,-0.053,0,0,0,1748,2021-01-15 19:04:58:273
0.18,-9.776,-0.045,0,0,0,1767,2021-01-15 19:04:58:292
0.18,-9.776,-0.045,0,0,0,1768,2021-01-15 19:04:58:293
0.18,-9.776,-0.045,0,0,0,1778,2021-01-15 19:04:58:303
0.18,-9.776,-0.045,0,0,0,1788,2021-01-15 19:04:58:313
0.18,-9.776,-0.045,0,0,0,1798,2021-01-15 19:04:58:323
0.18,-9.776,-0.045,0,0,0,1808,2021-01-15 19:04:58:333
0.18,-9.776,-0.045,0,0,0,1818,2021-01-15 19:04:58:343
0.175,-9.8,-0.053,0,0,0,1838,2021-01-15 19:04:58:363
0.175,-9.8,-0.053,0,0,0,1839,2021-01-15 19:04:58:364
0.175,-9.8,-0.053,0,0,0,1847,2021-01-15 19:04:58:372
0.175,-9.8,-0.053,0,0,0,1858,2021-01-15 19:04:58:383
0.175,-9.8,-0.053,0,0,0,1868,2021-01-15 19:04:58:393
0.175,-9.8,-0.053,0,0,0,1884,2021-01-15 19:04:58:409
0.175,-9.8,-0.053,0,0,0,1888,2021-01-15 19:04:58:413
0.165,-9.797,-0.05,0,0,0,1901,2021-01-15 19:04:58:426
0.165,-9.797,-0.05,0,0,0.001,1916,2021-01-15 19:04:58:441
0.165,-9.797,-0.05,0,0,0.001,1917,2021-01-15 19:04:58:442
0.165,-9.797,-0.05,0,0,0.001,1931,2021-01-15 19:04:58:456
0.165,-9.797,-0.05,0,0,0.001,1938,2021-01-15 19:04:58:463
0.165,-9.797,-0.05,0,0,0.001,1948,2021-01-15 19:04:58:473
0.165,-9.797,-0.05,0,0,0.001,1957,2021-01-15 19:04:58:482
0.175,-9.797,-0.065,0,0,0.001,1971,2021-01-15 19:04:58:496
0.175,-9.797,-0.065,0,0,0.001,1979,2021-01-15 19:04:58:504
0.175,-9.797,-0.065,0,0,0.001,1988,2021-01-15 19:04:58:513
0.175,-9.797,-0.065,0,0,0.001,1998,2021-01-15 19:04:58:523
0.175,-9.797,-0.065,0,0,0.001,2008,2021-01-15 19:04:58:533
0.175,-9.797,-0.065,0,0,0.001,2018,2021-01-15 19:04:58:543
0.165,-9.807,-0.041,0,0,0.001,2030,2021-01-15 19:04:58:555
0.165,-9.807,-0.041,0,0,0.001,2038,2021-01-15 19:04:58:563
0.165,-9.807,-0.041,0,0,0.001,2048,2021-01-15 19:04:58:573
0.165,-9.807,-0.041,0,0,0.001,2058,2021-01-15 19:04:58:583
0.165,-9.807,-0.041,0,0,0.001,2068,2021-01-15 19:04:58:593
0.165,-9.807,-0.041,0,0,0.001,2078,2021-01-15 19:04:58:603
0.163,-9.807,-0.06,0,0,0.001,2087,2021-01-15 19:04:58:612
0.163,-9.807,-0.06,0,0,0.001,2098,2021-01-15 19:04:58:623
0.163,-9.807,-0.06,0,0,0.001,2108,2021-01-15 19:04:58:633
0.163,-9.807,-0.06,0,0,0.001,2119,2021-01-15 19:04:58:644
0.163,-9.807,-0.06,0,0,0.001,2131,2021-01-15 19:04:58:656
0.163,-9.807,-0.06,0,0,0.001,2138,2021-01-15 19:04:58:663
0.172,-9.778,-0.053,0,0,0.001,2147,2021-01-15 19:04:58:672
0.172,-9.778,-0.053,0,0,0.001,2159,2021-01-15 19:04:58:684
0.172,-9.778,-0.053,0,0,0.001,2169,2021-01-15 19:04:58:694
0.172,-9.778,-0.053,0,0,0.001,2178,2021-01-15 19:04:58:703
0.172,-9.778,-0.053,0,0,0.001,2188,2021-01-15 19:04:58:713
0.172,-9.778,-0.053,0,0,0.001,2198,2021-01-15 19:04:58:723
0.16,-9.79,-0.069,0,0,0.001,2208,2021-01-15 19:04:58:733
0.16,-9.79,-0.069,0,0,0.001,2220,2021-01-15 19:04:58:745
0.16,-9.79,-0.069,0,0,0.001,2231,2021-01-15 19:04:58:756
0.16,-9.79,-0.069,0,0,0.001,2240,2021-01-15 19:04:58:765
0.16,-9.79,-0.069,0,0,0.001,2249,2021-01-15 19:04:58:774
0.16,-9.79,-0.069,0,0,0.001,2258,2021-01-15 19:04:58:783
0.163,-9.8,-0.06,0,0,0,2273,2021-01-15 19:04:58:798
0.163,-9.8,-0.06,0,0,0,2279,2021-01-15 19:04:58:804
0.163,-9.8,-0.06,0,0,0,2288,2021-01-15 19:04:58:813
0.163,-9.8,-0.06,0,0,0,2298,2021-01-15 19:04:58:823
0.163,-9.8,-0.06,0,0,0,2308,2021-01-15 19:04:58:833
0.163,-9.8,-0.06,0,0,0,2318,2021-01-15 19:04:58:843
0.158,-9.8,-0.048,0,0,0,2327,2021-01-15 19:04:58:852
0.158,-9.8,-0.048,0,0,0,2338,2021-01-15 19:04:58:863
0.158,-9.8,-0.048,0,0,0,2348,2021-01-15 19:04:58:873
0.158,-9.8,-0.048,0,0,0,2358,2021-01-15 19:04:58:883
0.158,-9.8,-0.048,0,0,0,2368,2021-01-15 19:04:58:893
0.158,-9.8,-0.048,0,0,0,2378,2021-01-15 19:04:58:903
0.163,-9.79,-0.038,0,0,0,2388,2021-01-15 19:04:58:913
0.163,-9.79,-0.038,0,0,0,2398,2021-01-15 19:04:58:923
0.163,-9.79,-0.038,0,0,0,2408,2021-01-15 19:04:58:933
0.163,-9.79,-0.038,0,0,0,2418,2021-01-15 19:04:58:943
0.163,-9.79,-0.038,0,0,0,2430,2021-01-15 19:04:58:955
0.163,-9.79,-0.038,0,0,0,2437,2021-01-15 19:04:58:962
0.182,-9.766,-0.057,0,0,0,2448,2021-01-15 19:04:58:973
0.182,-9.766,-0.057,0,0,0,2458,2021-01-15 19:04:58:983
0.182,-9.766,-0.057,0,0,0,2468,2021-01-15 19:04:58:993
0.182,-9.766,-0.057,0,0,0,2477,2021-01-15 19:04:59:002
0.182,-9.766,-0.057,0,0,0,2487,2021-01-15 19:04:59:012
0.182,-9.766,-0.057,0,0,0,2498,2021-01-15 19:04:59:023
0.156,-9.776,-0.055,0,0,0.001,2507,2021-01-15 19:04:59:032
0.156,-9.776,-0.055,0,0,0.001,2518,2021-01-15 19:04:59:043
0.156,-9.776,-0.055,0,0,0.001,2529,2021-01-15 19:04:59:054
0.156,-9.776,-0.055,0,0,0.001,2538,2021-01-15 19:04:59:063
0.156,-9.776,-0.055,0,0,0.001,2548,2021-01-15 19:04:59:073
0.156,-9.776,-0.055,0,0,0.001,2559,2021-01-15 19:04:59:084
0.17,-9.783,-0.055,0,0,0.001,2567,2021-01-15 19:04:59:092
0.17,-9.783,-0.055,0,0,0.001,2577,2021-01-15 19:04:59:102
0.17,-9.783,-0.055,0,0,0.001,2588,2021-01-15 19:04:59:113
0.17,-9.783,-0.055,0,0,0.001,2598,2021-01-15 19:04:59:123
0.17,-9.783,-0.055,0,0,0.001,2608,2021-01-15 19:04:59:133
0.17,-9.783,-0.055,0,0,0.001,2618,2021-01-15 19:04:59:143
0.189,-9.795,-0.055,0,0,0,2628,2021-01-15 19:04:59:153
0.189,-9.795,-0.055,0,0,0,2638,2021-01-15 19:04:59:163
0.189,-9.795,-0.055,0,0,0,2649,2021-01-15 19:04:59:174
0.189,-9.795,-0.055,0,0,0,2658,2021-01-15 19:04:59:183
0.189,-9.795,-0.055,0,0,0,2668,2021-01-15 19:04:59:193
0.189,-9.795,-0.055,0,0,0,2678,2021-01-15 19:04:59:203
0.18,-9.8,-0.057,0,0,0,2688,2021-01-15 19:04:59:213
0.18,-9.8,-0.057,0,0,0,2698,2021-01-15 19:04:59:223
0.18,-9.8,-0.057,0,0,0,2708,2021-01-15 19:04:59:233
0.18,-9.8,-0.057,0,0,0,2718,2021-01-15 19:04:59:243
0.18,-9.8,-0.057,0,0,0,2728,2021-01-15 19:04:59:253
0.18,-9.8,-0.057,0,0,0,2738,2021-01-15 19:04:59:263
0.17,-9.776,-0.036,0,0,0.001,2748,2021-01-15 19:04:59:273
0.17,-9.776,-0.036,0,0,0.001,2758,2021-01-15 19:04:59:283
0.17,-9.776,-0.036,0,0,0.001,2768,2021-01-15 19:04:59:293
0.17,-9.776,-0.036,0,0,0.001,2778,2021-01-15 19:04:59:303
0.17,-9.776,-0.036,0,0,0.001,2789,2021-01-15 19:04:59:314
0.17,-9.776,-0.036,0,0,0.001,2798,2021-01-15 19:04:59:323
0.163,-9.79,-0.043,0,0,0.001,2808,2021-01-15 19:04:59:333
0.163,-9.79,-0.043,0,0,0.001,2818,2021-01-15 19:04:59:343
0.163,-9.79,-0.043,0,0,0.001,2828,2021-01-15 19:04:59:353
0.163,-9.79,-0.043,0,0,0.001,2838,2021-01-15 19:04:59:363
0.163,-9.79,-0.043,0,0,0.001,2848,2021-01-15 19:04:59:373
0.163,-9.79,-0.043,0,0,0.001,2858,2021-01-15 19:04:59:383
0.163,-9.79,-0.043,0,0,0.001,2868,2021-01-15 19:04:59:393
0.187,-9.783,-0.045,0,0,0,2878,2021-01-15 19:04:59:403
0.187,-9.783,-0.045,0,0,0,2888,2021-01-15 19:04:59:413
0.187,-9.783,-0.045,0,0,0,2898,2021-01-15 19:04:59:423
0.187,-9.783,-0.045,0,0,0,2908,2021-01-15 19:04:59:433
0.187,-9.783,-0.045,0,0,0,2918,2021-01-15 19:04:59:443
0.187,-9.783,-0.045,0,0,0,2928,2021-01-15 19:04:59:453
0.187,-9.783,-0.045,0,0,0,2938,2021-01-15 19:04:59:463
0.17,-9.783,-0.053,0,0,0,2948,2021-01-15 19:04:59:473
0.17,-9.783,-0.053,0,0,0,2957,2021-01-15 19:04:59:482
0.17,-9.783,-0.053,0,0,0,2970,2021-01-15 19:04:59:495
0.17,-9.783,-0.053,0,0,0,2977,2021-01-15 19:04:59:502
0.17,-9.783,-0.053,0,0,0,2992,2021-01-15 19:04:59:517
0.17,-9.783,-0.053,0,0,0,2999,2021-01-15 19:04:59:524
0.177,-9.797,-0.036,0,0,0,3008,2021-01-15 19:04:59:533
0.177,-9.797,-0.036,0,0,0,3017,2021-01-15 19:04:59:542
0.177,-9.797,-0.036,0,0,0,3028,2021-01-15 19:04:59:553
0.177,-9.797,-0.036,0,0,0,3039,2021-01-15 19:04:59:564
0.177,-9.797,-0.036,0,0,0,3048,2021-01-15 19:04:59:573
0.177,-9.797,-0.036,0,0,0,3058,2021-01-15 19:04:59:583
0.177,-9.797,-0.036,0,0,0,3068,2021-01-15 19:04:59:593
0.177,-9.797,-0.036,0,0,0,3079,2021-01-15 19:04:59:604
0.172,-9.79,-0.057,0,0,0,3088,2021-01-15 19:04:59:613
0.172,-9.79,-0.057,0,0,0,3098,2021-01-15 19:04:59:623
0.172,-9.79,-0.057,0,0,0,3108,2021-01-15 19:04:59:633
0.172,-9.79,-0.057,0,0,0,3118,2021-01-15 19:04:59:643
0.172,-9.79,-0.057,0,0,0,3129,2021-01-15 19:04:59:654
0.172,-9.79,-0.057,0,0,0,3137,2021-01-15 19:04:59:662
0.168,-9.793,-0.065,0,0,0,3148,2021-01-15 19:04:59:673
0.168,-9.793,-0.065,0,0,0,3158,2021-01-15 19:04:59:683
0.168,-9.793,-0.065,0,0,0.001,3168,2021-01-15 19:04:59:693
0.168,-9.793,-0.065,0,0,0.001,3177,2021-01-15 19:04:59:702
0.168,-9.793,-0.065,0,0,0.001,3188,2021-01-15 19:04:59:713
0.168,-9.793,-0.065,0,0,0.001,3198,2021-01-15 19:04:59:723
0.17,-9.802,-0.05,0,0,0.001,3208,2021-01-15 19:04:59:733
0.17,-9.802,-0.05,0,0,0.001,3218,2021-01-15 19:04:59:743
0.17,-9.802,-0.05,0,0,0.001,3229,2021-01-15 19:04:59:754
0.17,-9.802,-0.05,0,0,0.001,3238,2021-01-15 19:04:59:763
0.17,-9.802,-0.05,0,0,0.001,3247,2021-01-15 19:04:59:772
0.17,-9.802,-0.05,0,0,0.001,3258,2021-01-15 19:04:59:783
0.17,-9.781,-0.05,0,0,0.001,3268,2021-01-15 19:04:59:793
0.17,-9.781,-0.05,0,0,0.001,3278,2021-01-15 19:04:59:803
0.17,-9.781,-0.05,0,0,0,3289,2021-01-15 19:04:59:814
0.17,-9.781,-0.05,0,0,0,3297,2021-01-15 19:04:59:822
0.17,-9.781,-0.05,0,0,0,3309,2021-01-15 19:04:59:834
0.17,-9.781,-0.05,0,0,0,3319,2021-01-15 19:04:59:844
0.182,-9.793,-0.05,0,0,0,3328,2021-01-15 19:04:59:853
0.182,-9.793,-0.05,0,0,0,3338,2021-01-15 19:04:59:863
0.182,-9.793,-0.05,0,0,0,3348,2021-01-15 19:04:59:873
0.182,-9.793,-0.05,0,0,0,3358,2021-01-15 19:04:59:883
0.182,-9.793,-0.05,0,0,0,3368,2021-01-15 19:04:59:893
0.182,-9.793,-0.05,0,0,0,3378,2021-01-15 19:04:59:903
0.163,-9.797,-0.06,0,0,0,3388,2021-01-15 19:04:59:913
0.163,-9.797,-0.06,0,0,0,3397,2021-01-15 19:04:59:922
0.163,-9.797,-0.06,0,0,0,3408,2021-01-15 19:04:59:933
0.163,-9.797,-0.06,0,0,0,3418,2021-01-15 19:04:59:943
0.163,-9.797,-0.06,0,0,0,3428,2021-01-15 19:04:59:953
0.163,-9.797,-0.06,0,0,0,3438,2021-01-15 19:04:59:963
0.17,-9.776,-0.036,0,0,0,3448,2021-01-15 19:04:59:973
0.17,-9.776,-0.036,0,0,0,3458,2021-01-15 19:04:59:983
0.17,-9.776,-0.036,0,0,0,3468,2021-01-15 19:04:59:993
0.17,-9.776,-0.036,0,0,0,3478,2021-01-15 19:05:00:003
0.17,-9.776,-0.036,0,0,0,3488,2021-01-15 19:05:00:013
0.17,-9.776,-0.036,0,0,0,3498,2021-01-15 19:05:00:023
0.172,-9.783,-0.036,0,0,0,3507,2021-01-15 19:05:00:032
0.172,-9.783,-0.036,0,0,0,3518,2021-01-15 19:05:00:043
0.172,-9.783,-0.036,0,0,0,3529,2021-01-15 19:05:00:054
0.172,-9.783,-0.036,0,-0.001,0,3538,2021-01-15 19:05:00:063
0.172,-9.783,-0.036,0,-0.001,0,3553,2021-01-15 19:05:00:078
0.172,-9.783,-0.036,0,-0.001,0,3558,2021-01-15 19:05:00:083
0.175,-9.8,-0.034,0,-0.001,0,3569,2021-01-15 19:05:00:094
0.175,-9.8,-0.034,0,-0.001,0,3578,2021-01-15 19:05:00:103
0.175,-9.8,-0.034,0,-0.001,0,3588,2021-01-15 19:05:00:113
0.175,-9.8,-0.034,0,-0.001,0,3598,2021-01-15 19:05:00:123
0.175,-9.8,-0.034,0,-0.001,0,3608,2021-01-15 19:05:00:133
0.175,-9.8,-0.034,0,-0.001,0,3618,2021-01-15 19:05:00:143
0.172,-9.802,-0.019,0,-0.001,0,3628,2021-01-15 19:05:00:153
0.172,-9.802,-0.019,0,-0.001,0,3637,2021-01-15 19:05:00:162
0.172,-9.802,-0.019,0,0,0.001,3648,2021-01-15 19:05:00:173
0.172,-9.802,-0.019,0,0,0.001,3658,2021-01-15 19:05:00:183
0.172,-9.802,-0.019,0,0,0.001,3667,2021-01-15 19:05:00:192
0.172,-9.802,-0.019,0,0,0.001,3679,2021-01-15 19:05:00:204
0.16,-9.781,-0.019,0,0,0.001,3688,2021-01-15 19:05:00:213
0.16,-9.781,-0.019,0,0,0.001,3698,2021-01-15 19:05:00:223
0.16,-9.781,-0.019,0,0,0.001,3708,2021-01-15 19:05:00:233
0.16,-9.781,-0.019,0,0,0.001,3718,2021-01-15 19:05:00:243
0.16,-9.781,-0.019,0,0,0.001,3728,2021-01-15 19:05:00:253
0.177,-9.785,-0.029,0,0,0.001,3745,2021-01-15 19:05:00:270
0.177,-9.785,-0.029,0,0,0.001,3749,2021-01-15 19:05:00:274
0.177,-9.785,-0.029,0,0,0.001,3759,2021-01-15 19:05:00:284
0.177,-9.785,-0.029,0,0,0,3769,2021-01-15 19:05:00:294
0.177,-9.785,-0.029,0,0,0,3778,2021-01-15 19:05:00:303
0.177,-9.785,-0.029,0,0,0,3787,2021-01-15 19:05:00:312
0.177,-9.785,-0.029,0,0,0,3798,2021-01-15 19:05:00:323
0.182,-9.8,-0.024,0,0,0,3808,2021-01-15 19:05:00:333
0.182,-9.8,-0.024,0,0,0,3818,2021-01-15 19:05:00:343
0.182,-9.8,-0.024,0,0,0,3828,2021-01-15 19:05:00:353
0.182,-9.8,-0.024,0,0,0,3837,2021-01-15 19:05:00:362
0.182,-9.8,-0.024,0,0,0,3848,2021-01-15 19:05:00:373
0.182,-9.8,-0.024,0,0,0,3858,2021-01-15 19:05:00:383
0.163,-9.793,-0.026,0,0,0,3868,2021-01-15 19:05:00:393
0.163,-9.793,-0.026,0,0,0,3878,2021-01-15 19:05:00:403
0.163,-9.793,-0.026,0,0,0.001,3888,2021-01-15 19:05:00:413
0.163,-9.793,-0.026,0,0,0.001,3897,2021-01-15 19:05:00:422
0.163,-9.793,-0.026,0,0,0.001,3908,2021-01-15 19:05:00:433
0.163,-9.793,-0.026,0,0,0.001,3918,2021-01-15 19:05:00:443
0.141,-9.8,-0.036,0,0,0.001,3928,2021-01-15 19:05:00:453
0.141,-9.8,-0.036,0,0,0.001,3938,2021-01-15 19:05:00:463
0.141,-9.8,-0.036,0,0,0.001,3948,2021-01-15 19:05:00:473
0.141,-9.8,-0.036,0,0,0.001,3958,2021-01-15 19:05:00:483
0.141,-9.8,-0.036,0,0,0.001,3968,2021-01-15 19:05:00:493
0.141,-9.8,-0.036,0,0,0.001,3977,2021-01-15 19:05:00:502
0.16,-9.793,-0.05,0,0,0.001,3991,2021-01-15 19:05:00:516
0.16,-9.793,-0.05,0,0,0.001,3999,2021-01-15 19:05:00:524
0.16,-9.793,-0.05,0,0,0,4007,2021-01-15 19:05:00:532
0.16,-9.793,-0.05,0,0,0,4018,2021-01-15 19:05:00:543
0.16,-9.793,-0.05,0,0,0,4028,2021-01-15 19:05:00:553
0.16,-9.793,-0.05,0,0,0,4037,2021-01-15 19:05:00:562
0.175,-9.797,-0.026,0,0,0,4048,2021-01-15 19:05:00:573
0.175,-9.797,-0.026,0,0,0,4058,2021-01-15 19:05:00:583
0.175,-9.797,-0.026,0,0,0,4068,2021-01-15 19:05:00:593
0.175,-9.797,-0.026,0,0,0,4078,2021-01-15 19:05:00:603
0.175,-9.797,-0.026,0,0,0,4088,2021-01-15 19:05:00:613
0.175,-9.797,-0.026,0,0,0,4098,2021-01-15 19:05:00:623
0.168,-9.788,-0.034,0,0,0,4108,2021-01-15 19:05:00:633
0.168,-9.788,-0.034,0,0,0,4118,2021-01-15 19:05:00:643
0.168,-9.788,-0.034,0,0,0.001,4128,2021-01-15 19:05:00:653
0.168,-9.788,-0.034,0,0,0.001,4138,2021-01-15 19:05:00:663
0.168,-9.788,-0.034,0,0,0.001,4147,2021-01-15 19:05:00:672
0.168,-9.788,-0.034,0,0,0.001,4159,2021-01-15 19:05:00:684
0.172,-9.795,-0.029,0,0,0.001,4168,2021-01-15 19:05:00:693
0.172,-9.795,-0.029,0,0,0.001,4178,2021-01-15 19:05:00:703
0.172,-9.795,-0.029,0,0,0.001,4188,2021-01-15 19:05:00:713
0.172,-9.795,-0.029,0,0,0.001,4204,2021-01-15 19:05:00:729
0.172,-9.795,-0.029,0,0,0.001,4208,2021-01-15 19:05:00:733
0.172,-9.795,-0.029,0,0,0.001,4218,2021-01-15 19:05:00:743
0.156,-9.788,-0.048,0,0,0.001,4228,2021-01-15 19:05:00:753
0.156,-9.788,-0.048,0,0,0.001,4238,2021-01-15 19:05:00:763
0.156,-9.788,-0.048,0,0,0,4248,2021-01-15 19:05:00:773
0.156,-9.788,-0.048,0,0,0,4258,2021-01-15 19:05:00:783
0.156,-9.788,-0.048,0,0,0,4271,2021-01-15 19:05:00:796
0.156,-9.788,-0.048,0,0,0,4279,2021-01-15 19:05:00:804
0.165,-9.783,-0.034,0,0,0,4288,2021-01-15 19:05:00:813
0.165,-9.783,-0.034,0,0,0,4298,2021-01-15 19:05:00:823
0.165,-9.783,-0.034,0,0,0,4307,2021-01-15 19:05:00:832
0.165,-9.783,-0.034,0,0,0,4318,2021-01-15 19:05:00:843
0.165,-9.783,-0.034,0,0,0,4328,2021-01-15 19:05:00:853
0.172,-9.79,-0.034,0,0,0,4340,2021-01-15 19:05:00:865
0.172,-9.79,-0.034,0,0,0,4348,2021-01-15 19:05:00:873
0.172,-9.79,-0.034,0,0,0,4363,2021-01-15 19:05:00:888
0.172,-9.79,-0.034,0,0,0,4368,2021-01-15 19:05:00:893
0.172,-9.79,-0.034,0,0,0,4378,2021-01-15 19:05:00:903
0.172,-9.79,-0.034,0,0,0,4388,2021-01-15 19:05:00:913
0.172,-9.79,-0.034,0,0,0,4398,2021-01-15 19:05:00:923
0.168,-9.785,-0.053,0,0,0,4408,2021-01-15 19:05:00:933
0.168,-9.785,-0.053,0,0,0,4418,2021-01-15 19:05:00:943
0.168,-9.785,-0.053,0,0,0,4428,2021-01-15 19:05:00:953
0.168,-9.785,-0.053,0,0,0,4438,2021-01-15 19:05:00:963
0.168,-9.785,-0.053,0,0,0,4448,2021-01-15 19:05:00:973
0.168,-9.785,-0.053,0,0,0,4459,2021-01-15 19:05:00:984
0.168,-9.788,-0.036,0,0,0,4469,2021-01-15 19:05:00:994
0.168,-9.788,-0.036,0,0,0,4478,2021-01-15 19:05:01:003
0.168,-9.788,-0.036,0,0,0,4491,2021-01-15 19:05:01:016
0.168,-9.788,-0.036,0,0,0,4498,2021-01-15 19:05:01:023
0.168,-9.788,-0.036,0,0,0,4507,2021-01-15 19:05:01:032
0.168,-9.788,-0.036,0,0,0,4518,2021-01-15 19:05:01:043
0.177,-9.797,-0.045,0,0,0,4528,2021-01-15 19:05:01:053
0.177,-9.797,-0.045,0,0,0,4540,2021-01-15 19:05:01:065
0.177,-9.797,-0.045,0,0,0,4548,2021-01-15 19:05:01:073
0.177,-9.797,-0.045,0,0,0,4559,2021-01-15 19:05:01:084
0.177,-9.797,-0.045,0,0,0,4571,2021-01-15 19:05:01:096
0.177,-9.797,-0.045,0,0,0,4578,2021-01-15 19:05:01:103
0.177,-9.793,-0.043,0,0,0,4589,2021-01-15 19:05:01:114
0.177,-9.793,-0.043,0,0,0,4597,2021-01-15 19:05:01:122
0.177,-9.793,-0.043,0,0,0.001,4607,2021-01-15 19:05:01:132
0.177,-9.793,-0.043,0,0,0.001,4618,2021-01-15 19:05:01:143
0.177,-9.793,-0.043,0,0,0.001,4627,2021-01-15 19:05:01:152
0.177,-9.793,-0.043,0,0,0.001,4638,2021-01-15 19:05:01:163
0.156,-9.814,-0.053,0,0,0.001,4648,2021-01-15 19:05:01:173
0.156,-9.814,-0.053,0,0,0.001,4658,2021-01-15 19:05:01:183
0.156,-9.814,-0.053,0,0,0.001,4668,2021-01-15 19:05:01:193
0.156,-9.814,-0.053,0,0,0.001,4678,2021-01-15 19:05:01:203
0.156,-9.814,-0.053,0,0,0.001,4688,2021-01-15 19:05:01:213
0.156,-9.814,-0.053,0,0,0.001,4699,2021-01-15 19:05:01:224
0.17,-9.793,-0.045,0,0,0.001,4708,2021-01-15 19:05:01:233
0.17,-9.793,-0.045,0,0,0.001,4718,2021-01-15 19:05:01:243
0.17,-9.793,-0.045,0,0,0,4729,2021-01-15 19:05:01:254
0.17,-9.793,-0.045,0,0,0,4738,2021-01-15 19:05:01:263
0.17,-9.793,-0.045,0,0,0,4747,2021-01-15 19:05:01:272
0.17,-9.793,-0.045,0,0,0,4759,2021-01-15 19:05:01:284
0.165,-9.788,-0.045,0,0,0,4768,2021-01-15 19:05:01:293
0.165,-9.788,-0.045,0,0,0,4778,2021-01-15 19:05:01:303
0.165,-9.788,-0.045,0,0,0,4787,2021-01-15 19:05:01:312
0.165,-9.788,-0.045,0,0,0,4798,2021-01-15 19:05:01:323
0.165,-9.788,-0.045,0,0,0,4808,2021-01-15 19:05:01:333
0.192,-9.8,-0.05,0,0,0,4818,2021-01-15 19:05:01:343
0.192,-9.8,-0.05,0,0,0,4828,2021-01-15 19:05:01:353
0.192,-9.8,-0.05,0,0,0,4838,2021-01-15 19:05:01:363
0.192,-9.8,-0.05,0,0,0.001,4848,2021-01-15 19:05:01:373
0.192,-9.8,-0.05,0,0,0.001,4858,2021-01-15 19:05:01:383
0.192,-9.8,-0.05,0,0,0.001,4868,2021-01-15 19:05:01:393
0.192,-9.8,-0.05,0,0,0.001,4877,2021-01-15 19:05:01:402
0.172,-9.797,-0.034,0,0,0.001,4890,2021-01-15 19:05:01:415
0.172,-9.797,-0.034,0,0,0.001,4898,2021-01-15 19:05:01:423
0.172,-9.797,-0.034,0,0,0.001,4908,2021-01-15 19:05:01:433
0.172,-9.797,-0.034,0,0,0.001,4918,2021-01-15 19:05:01:443
0.172,-9.797,-0.034,0,0,0.001,4928,2021-01-15 19:05:01:453
0.172,-9.797,-0.034,0,0,0.001,4938,2021-01-15 19:05:01:463
0.184,-9.809,-0.043,0,0,0.001,4948,2021-01-15 19:05:01:473
0.184,-9.809,-0.043,0,0,0.001,4958,2021-01-15 19:05:01:483
0.184,-9.809,-0.043,0,0,0.001,4968,2021-01-15 19:05:01:493
0.184,-9.809,-0.043,0,0,0.001,4978,2021-01-15 19:05:01:503
0.184,-9.809,-0.043,0,0,0.001,4992,2021-01-15 19:05:01:517
0.184,-9.809,-0.043,0,0,0.001,4997,2021-01-15 19:05:01:522
0.177,-9.795,-0.038,0,0,0.001,5008,2021-01-15 19:05:01:533
0.177,-9.795,-0.038,0,0,0.001,5019,2021-01-15 19:05:01:544
0.177,-9.795,-0.038,0,0,0.001,5032,2021-01-15 19:05:01:557
0.177,-9.795,-0.038,0,0,0.001,5038,2021-01-15 19:05:01:563
0.177,-9.795,-0.038,0,0,0.001,5048,2021-01-15 19:05:01:573
0.177,-9.795,-0.038,0,0,0.001,5058,2021-01-15 19:05:01:583
0.163,-9.795,-0.036,0,0,0.001,5067,2021-01-15 19:05:01:592
0.163,-9.795,-0.036,0,0,0.001,5078,2021-01-15 19:05:01:603
0.163,-9.795,-0.036,0,0,0,5088,2021-01-15 19:05:01:613
0.163,-9.795,-0.036,0,0,0,5098,2021-01-15 19:05:01:623
0.163,-9.795,-0.036,0,0,0,5108,2021-01-15 19:05:01:633
0.163,-9.795,-0.036,0,0,0,5118,2021-01-15 19:05:01:643
0.175,-9.785,-0.045,0,0,0,5127,2021-01-15 19:05:01:652
0.175,-9.785,-0.045,0,0,0,5137,2021-01-15 19:05:01:662
0.175,-9.785,-0.045,0,0,0,5148,2021-01-15 19:05:01:673
0.175,-9.785,-0.045,0,0,0,5158,2021-01-15 19:05:01:683
0.175,-9.785,-0.045,0,0,0,5168,2021-01-15 19:05:01:693
0.175,-9.785,-0.045,0,0,0,5177,2021-01-15 19:05:01:702
0.165,-9.79,-0.043,0,0,0,5187,2021-01-15 19:05:01:712
0.165,-9.79,-0.043,0,0,0,5199,2021-01-15 19:05:01:724
0.165,-9.79,-0.043,0,0,0,5208,2021-01-15 19:05:01:733
0.165,-9.79,-0.043,0,0,0,5227,2021-01-15 19:05:01:752
0.165,-9.79,-0.043,0,0,0,5229,2021-01-15 19:05:01:754
0.165,-9.79,-0.043,0,0,0,5240,2021-01-15 19:05:01:765
0.175,-9.793,-0.057,0,0,0,5248,2021-01-15 19:05:01:773
0.175,-9.793,-0.057,0,0,0,5258,2021-01-15 19:05:01:783
0.175,-9.793,-0.057,0,0,0,5268,2021-01-15 19:05:01:793
0.175,-9.793,-0.057,0,0,0,5279,2021-01-15 19:05:01:804
0.175,-9.793,-0.057,0,0,0,5288,2021-01-15 19:05:01:813
0.175,-9.793,-0.057,0,0,0,5298,2021-01-15 19:05:01:823
0.151,-9.785,-0.06,0,0,0,5308,2021-01-15 19:05:01:833
0.151,-9.785,-0.06,0,0,0,5318,2021-01-15 19:05:01:843
0.151,-9.785,-0.06,0,0,0.001,5328,2021-01-15 19:05:01:853
0.151,-9.785,-0.06,0,0,0.001,5338,2021-01-15 19:05:01:863
0.151,-9.785,-0.06,0,0,0.001,5349,2021-01-15 19:05:01:874
0.151,-9.785,-0.06,0,0,0.001,5358,2021-01-15 19:05:01:883
0.182,-9.773,-0.048,0,0,0.001,5376,2021-01-15 19:05:01:901
0.182,-9.773,-0.048,0,0,0.001,5380,2021-01-15 19:05:01:905
0.182,-9.773,-0.048,0,0,0.001,5388,2021-01-15 19:05:01:913
0.182,-9.773,-0.048,0,0,0.001,5399,2021-01-15 19:05:01:924
0.182,-9.773,-0.048,0,0,0.001,5408,2021-01-15 19:05:01:933
0.182,-9.773,-0.048,0,0,0.001,5418,2021-01-15 19:05:01:943
0.168,-9.783,-0.057,0,0,0.001,5427,2021-01-15 19:05:01:952
0.168,-9.783,-0.057,0,0,0.001,5438,2021-01-15 19:05:01:963
0.168,-9.783,-0.057,0,0,0,5448,2021-01-15 19:05:01:973
0.168,-9.783,-0.057,0,0,0,5458,2021-01-15 19:05:01:983
0.168,-9.783,-0.057,0,0,0,5469,2021-01-15 19:05:01:994
0.168,-9.783,-0.057,0,0,0,5478,2021-01-15 19:05:02:003
0.168,-9.793,-0.05,0,0,0,5488,2021-01-15 19:05:02:013
0.168,-9.793,-0.05,0,0,0,5498,2021-01-15 19:05:02:023
0.168,-9.793,-0.05,0,0,0,5507,2021-01-15 19:05:02:032
0.168,-9.793,-0.05,0,0,0,5519,2021-01-15 19:05:02:044
0.168,-9.793,-0.05,0,0,0,5528,2021-01-15 19:05:02:053
0.158,-9.805,-0.062,0,0,0,5541,2021-01-15 19:05:02:066
0.158,-9.805,-0.062,0,0,0,5548,2021-01-15 19:05:02:073
0.158,-9.805,-0.062,0,0,0,5562,2021-01-15 19:05:02:087
0.158,-9.805,-0.062,0,0,0,5568,2021-01-15 19:05:02:093
0.158,-9.805,-0.062,0,0,0,5579,2021-01-15 19:05:02:104
0.158,-9.805,-0.062,0,0,0,5588,2021-01-15 19:05:02:113
0.158,-9.805,-0.062,0,0,0,5598,2021-01-15 19:05:02:123
0.175,-9.797,-0.057,0,0,0,5608,2021-01-15 19:05:02:133
0.175,-9.797,-0.057,0,0,0,5619,2021-01-15 19:05:02:144
0.175,-9.797,-0.057,0,0,0,5629,2021-01-15 19:05:02:154
0.175,-9.797,-0.057,0,0,0,5638,2021-01-15 19:05:02:163
0.175,-9.797,-0.057,0,0,0,5648,2021-01-15 19:05:02:173
0.175,-9.797,-0.057,0,0,0,5658,2021-01-15 19:05:02:183
0.172,-9.8,-0.036,0,0,0,5668,2021-01-15 19:05:02:193
0.172,-9.8,-0.036,0,0,0,5678,2021-01-15 19:05:02:203
0.172,-9.8,-0.036,0,0,0,5688,2021-01-15 19:05:02:213
0.172,-9.8,-0.036,0,0,0,5699,2021-01-15 19:05:02:224
0.172,-9.8,-0.036,0,0,0,5708,2021-01-15 19:05:02:233
0.172,-9.8,-0.036,0,0,0,5718,2021-01-15 19:05:02:243
0.172,-9.809,-0.065,0,0,0,5728,2021-01-15 19:05:02:253
0.172,-9.809,-0.065,0,0,0,5738,2021-01-15 19:05:02:263
0.172,-9.809,-0.065,0,0,0,5748,2021-01-15 19:05:02:273
0.172,-9.809,-0.065,0,0,0,5760,2021-01-15 19:05:02:285
0.172,-9.809,-0.065,0,0,0,5767,2021-01-15 19:05:02:292
0.172,-9.809,-0.065,0,0,0,5778,2021-01-15 19:05:02:303
0.163,-9.795,-0.065,0,0,0,5788,2021-01-15 19:05:02:313
0.163,-9.795,-0.065,0,0,0,5798,2021-01-15 19:05:02:323
0.163,-9.795,-0.065,0,0,0,5808,2021-01-15 19:05:02:333
0.163,-9.795,-0.065,0,0,0.001,5827,2021-01-15 19:05:02:352
0.163,-9.795,-0.065,0,0,0.001,5828,2021-01-15 19:05:02:353
0.17,-9.79,-0.053,0,0,0.001,5838,2021-01-15 19:05:02:363
0.17,-9.79,-0.053,0,0,0.001,5848,2021-01-15 19:05:02:373
0.17,-9.79,-0.053,0,0,0.001,5858,2021-01-15 19:05:02:383
0.17,-9.79,-0.053,0,0,0.001,5867,2021-01-15 19:05:02:392
0.17,-9.79,-0.053,0,0,0.001,5878,2021-01-15 19:05:02:403
0.17,-9.79,-0.053,0,0,0.001,5892,2021-01-15 19:05:02:417
0.17,-9.79,-0.053,0,0,0.001,5898,2021-01-15 19:05:02:423
0.163,-9.781,-0.05,0,0,0.001,5908,2021-01-15 19:05:02:433
0.163,-9.781,-0.05,0,0,0.001,5918,2021-01-15 19:05:02:443
0.163,-9.781,-0.05,0,0,0.001,5927,2021-01-15 19:05:02:452
0.163,-9.781,-0.05,0,0,0,5938,2021-01-15 19:05:02:463
0.163,-9.781,-0.05,0,0,0,5949,2021-01-15 19:05:02:474
0.163,-9.781,-0.05,0,0,0,5960,2021-01-15 19:05:02:485
0.165,-9.807,-0.048,0,0,0,5967,2021-01-15 19:05:02:492
0.165,-9.807,-0.048,0,0,0,5978,2021-01-15 19:05:02:503
0.165,-9.807,-0.048,0,0,0,5987,2021-01-15 19:05:02:512
0.165,-9.807,-0.048,0,0,0,5998,2021-01-15 19:05:02:523
0.165,-9.807,-0.048,0,0,0,6008,2021-01-15 19:05:02:533
0.165,-9.807,-0.048,0,0,0,6018,2021-01-15 19:05:02:543
0.172,-9.788,-0.05,0,0,0,6027,2021-01-15 19:05:02:552
0.172,-9.788,-0.05,0,0,0,6037,2021-01-15 19:05:02:562
0.172,-9.788,-0.05,0,0,0,6048,2021-01-15 19:05:02:573
0.172,-9.788,-0.05,0,0,0,6058,2021-01-15 19:05:02:583
0.172,-9.788,-0.05,0,0,0,6068,2021-01-15 19:05:02:593
0.172,-9.788,-0.05,0,0,0,6077,2021-01-15 19:05:02:602
0.168,-9.802,-0.043,0,0,0,6088,2021-01-15 19:05:02:613
0.168,-9.802,-0.043,0,0,0,6100,2021-01-15 19:05:02:625
0.168,-9.802,-0.043,0,0,0,6108,2021-01-15 19:05:02:633
0.168,-9.802,-0.043,0,0,0,6118,2021-01-15 19:05:02:643
0.168,-9.802,-0.043,0,0,0,6127,2021-01-15 19:05:02:652
0.168,-9.802,-0.043,0,0,0,6138,2021-01-15 19:05:02:663
0.168,-9.785,-0.038,0,0,0,6147,2021-01-15 19:05:02:672
0.168,-9.785,-0.038,0,0,0,6158,2021-01-15 19:05:02:683
0.168,-9.785,-0.038,0,0,-0.001,6168,2021-01-15 19:05:02:693
0.168,-9.785,-0.038,0,0,-0.001,6185,2021-01-15 19:05:02:710
0.168,-9.785,-0.038,0,0,-0.001,6188,2021-01-15 19:05:02:713
0.172,-9.795,-0.06,0,0,-0.001,6211,2021-01-15 19:05:02:736
0.172,-9.795,-0.06,0,0,-0.001,6214,2021-01-15 19:05:02:739
0.172,-9.795,-0.06,0,0,-0.001,6227,2021-01-15 19:05:02:752
0.172,-9.795,-0.06,0,0,-0.001,6229,2021-01-15 19:05:02:754
0.172,-9.795,-0.06,0,0,0,6238,2021-01-15 19:05:02:763
0.172,-9.795,-0.06,0,0,0,6248,2021-01-15 19:05:02:773
0.172,-9.795,-0.06,0,0,0,6258,2021-01-15 19:05:02:783
0.168,-9.814,-0.062,0,0,0,6267,2021-01-15 19:05:02:792
0.168,-9.814,-0.062,0,0,0,6278,2021-01-15 19:05:02:803
0.168,-9.814,-0.062,0,0,0,6289,2021-01-15 19:05:02:814
0.168,-9.814,-0.062,0,0,0,6299,2021-01-15 19:05:02:824
0.168,-9.814,-0.062,0,0,0,6308,2021-01-15 19:05:02:833
0.168,-9.797,-0.05,0,0,0,6318,2021-01-15 19:05:02:843
0.168,-9.797,-0.05,0,0,0,6329,2021-01-15 19:05:02:854
0.168,-9.797,-0.05,0,0,0,6337,2021-01-15 19:05:02:862
0.168,-9.797,-0.05,0,0,0,6349,2021-01-15 19:05:02:874
0.168,-9.797,-0.05,0,0,0,6361,2021-01-15 19:05:02:886
0.168,-9.797,-0.05,0,0,0,6368,2021-01-15 19:05:02:893
0.168,-9.797,-0.05,0,0,0,6377,2021-01-15 19:05:02:902
0.158,-9.785,-0.069,0,0,0,6392,2021-01-15 19:05:02:917
0.158,-9.785,-0.069,0,0,0,6398,2021-01-15 19:05:02:923
0.158,-9.785,-0.069,0,0,0,6408,2021-01-15 19:05:02:933
0.158,-9.785,-0.069,0,0,0,6418,2021-01-15 19:05:02:943
0.158,-9.785,-0.069,0,0,0,6429,2021-01-15 19:05:02:954
0.158,-9.785,-0.069,0,0,0,6438,2021-01-15 19:05:02:963
0.153,-9.79,-0.069,0,0,0,6447,2021-01-15 19:05:02:972
0.153,-9.79,-0.069,0,0,0,6458,2021-01-15 19:05:02:983
0.153,-9.79,-0.069,0,0,0,6468,2021-01-15 19:05:02:993
0.153,-9.79,-0.069,0,0,0,6478,2021-01-15 19:05:03:003
0.153,-9.79,-0.069,0,0,0,6488,2021-01-15 19:05:03:013
0.153,-9.79,-0.069,0,0,0,6498,2021-01-15 19:05:03:023
0.17,-9.8,-0.06,0,0,0,6508,2021-01-15 19:05:03:033
0.17,-9.8,-0.06,0,0,0,6517,2021-01-15 19:05:03:042
0.17,-9.8,-0.06,0,0,0,6528,2021-01-15 19:05:03:053
0.17,-9.8,-0.06,0,0,0,6537,2021-01-15 19:05:03:062
0.17,-9.8,-0.06,0,0,0,6548,2021-01-15 19:05:03:073
0.17,-9.8,-0.06,0,0,0,6557,2021-01-15 19:05:03:082
0.168,-9.793,-0.055,0,0,0,6568,2021-01-15 19:05:03:093
0.168,-9.793,-0.055,0,0,0,6577,2021-01-15 19:05:03:102
0.168,-9.793,-0.055,0,0,0.001,6588,2021-01-15 19:05:03:113
0.168,-9.793,-0.055,0,0,0.001,6598,2021-01-15 19:05:03:123
0.168,-9.793,-0.055,0,0,0.001,6608,2021-01-15 19:05:03:133
0.168,-9.793,-0.055,0,0,0.001,6617,2021-01-15 19:05:03:142
0.17,-9.79,-0.045,0,0,0.001,6628,2021-01-15 19:05:03:153
0.17,-9.79,-0.045,0,0,0.001,6638,2021-01-15 19:05:03:163
0.17,-9.79,-0.045,0,0,0.001,6648,2021-01-15 19:05:03:173
0.17,-9.79,-0.045,0,0,0.001,6657,2021-01-15 19:05:03:182
0.17,-9.79,-0.045,0,0,0.001,6668,2021-01-15 19:05:03:193
0.17,-9.79,-0.045,0,0,0.001,6678,2021-01-15 19:05:03:203
0.177,-9.795,-0.055,0,0,0.001,6689,2021-01-15 19:05:03:214
0.177,-9.795,-0.055,0,0,0.001,6698,2021-01-15 19:05:03:223
0.177,-9.795,-0.055,0,0,0,6708,2021-01-15 19:05:03:233
0.177,-9.795,-0.055,0,0,0,6717,2021-01-15 19:05:03:242
0.177,-9.795,-0.055,0,0,0,6728,2021-01-15 19:05:03:253
0.177,-9.795,-0.055,0,0,0,6738,2021-01-15 19:05:03:263
0.16,-9.79,-0.053,0,0,0,6748,2021-01-15 19:05:03:273
0.16,-9.79,-0.053,0,0,0,6758,2021-01-15 19:05:03:283
0.16,-9.79,-0.053,0,0,0,6768,2021-01-15 19:05:03:293
0.16,-9.79,-0.053,0,0,0,6777,2021-01-15 19:05:03:302
0.16,-9.79,-0.053,0,0,0,6788,2021-01-15 19:05:03:313
0.16,-9.79,-0.053,0,0,0,6798,2021-01-15 19:05:03:323
0.172,-9.785,-0.041,0,0,0,6807,2021-01-15 19:05:03:332
0.172,-9.785,-0.041,0,0,0,6818,2021-01-15 19:05:03:343
0.172,-9.785,-0.041,0,0,0,6828,2021-01-15 19:05:03:353
0.172,-9.785,-0.041,0,0,0,6838,2021-01-15 19:05:03:363
0.172,-9.785,-0.041,0,0,0,6848,2021-01-15 19:05:03:373
0.172,-9.785,-0.041,0,0,0,6857,2021-01-15 19:05:03:382
0.156,-9.79,-0.017,0,0,0,6868,2021-01-15 19:05:03:393
0.156,-9.79,-0.017,0,0,0,6878,2021-01-15 19:05:03:403
0.156,-9.79,-0.017,0,0,0,6887,2021-01-15 19:05:03:412
0.156,-9.79,-0.017,0,0,0,6898,2021-01-15 19:05:03:423
0.156,-9.79,-0.017,0,0,0,6908,2021-01-15 19:05:03:433
0.156,-9.79,-0.017,0,0,0,6917,2021-01-15 19:05:03:442
0.18,-9.793,-0.05,0,0,0,6928,2021-01-15 19:05:03:453
0.18,-9.793,-0.05,0,0,0,6938,2021-01-15 19:05:03:463
0.18,-9.793,-0.05,0,0,0,6947,2021-01-15 19:05:03:472
0.18,-9.793,-0.05,0,0,0,6958,2021-01-15 19:05:03:483
0.18,-9.793,-0.05,0,0,0,6968,2021-01-15 19:05:03:493
0.18,-9.793,-0.05,0,0,0,6978,2021-01-15 19:05:03:503
0.177,-9.795,-0.048,0,0,0,6988,2021-01-15 19:05:03:513
0.177,-9.795,-0.048,0,0,0,6997,2021-01-15 19:05:03:522
0.177,-9.795,-0.048,0,0,0,7008,2021-01-15 19:05:03:533
0.177,-9.795,-0.048,0,0,0,7018,2021-01-15 19:05:03:543
0.177,-9.795,-0.048,0,0,0,7029,2021-01-15 19:05:03:554
0.177,-9.795,-0.048,0,0,0,7038,2021-01-15 19:05:03:563
0.17,-9.795,-0.05,0,0,0,7048,2021-01-15 19:05:03:573
0.17,-9.795,-0.05,0,0,0,7058,2021-01-15 19:05:03:583
0.17,-9.795,-0.05,0,0,0,7068,2021-01-15 19:05:03:593
0.17,-9.795,-0.05,0,0,0,7078,2021-01-15 19:05:03:603
0.17,-9.795,-0.05,0,0,0,7088,2021-01-15 19:05:03:613
0.17,-9.795,-0.05,0,0,0,7098,2021-01-15 19:05:03:623
0.182,-9.795,-0.045,0,0,0,7108,2021-01-15 19:05:03:633
0.182,-9.795,-0.045,0,0,0,7119,2021-01-15 19:05:03:644
0.182,-9.795,-0.045,0,0,0,7129,2021-01-15 19:05:03:654
0.182,-9.795,-0.045,0,0,0,7138,2021-01-15 19:05:03:663
0.182,-9.795,-0.045,0,0,0,7152,2021-01-15 19:05:03:677
0.182,-9.795,-0.045,0,0,0,7157,2021-01-15 19:05:03:682
0.172,-9.8,-0.048,0,0,0,7167,2021-01-15 19:05:03:692
0.172,-9.8,-0.048,0,0,0,7178,2021-01-15 19:05:03:703
0.172,-9.8,-0.048,0,0,0.001,7188,2021-01-15 19:05:03:713
0.172,-9.8,-0.048,0,0,0.001,7198,2021-01-15 19:05:03:723
0.172,-9.8,-0.048,0,0,0.001,7207,2021-01-15 19:05:03:732
0.172,-9.8,-0.048,0,0,0.001,7218,2021-01-15 19:05:03:743
0.17,-9.79,-0.067,0,0,0.001,7228,2021-01-15 19:05:03:753
0.17,-9.79,-0.067,0,0,0.001,7238,2021-01-15 19:05:03:763
0.17,-9.79,-0.067,0,0,0.001,7248,2021-01-15 19:05:03:773
0.17,-9.79,-0.067,0,0,0.001,7258,2021-01-15 19:05:03:783
0.17,-9.79,-0.067,0,0,0.001,7267,2021-01-15 19:05:03:792
0.17,-9.79,-0.067,0,0,0.001,7278,2021-01-15 19:05:03:803
0.158,-9.807,-0.057,0,0,0.001,7288,2021-01-15 19:05:03:813
0.158,-9.807,-0.057,0,0,0.001,7297,2021-01-15 19:05:03:822
0.158,-9.807,-0.057,0,0,0.001,7308,2021-01-15 19:05:03:833
0.158,-9.807,-0.057,0,0,0.001,7318,2021-01-15 19:05:03:843
0.158,-9.807,-0.057,0,0,0.001,7328,2021-01-15 19:05:03:853
0.158,-9.807,-0.057,0,0,0.001,7337,2021-01-15 19:05:03:862
0.17,-9.79,-0.043,0,0,0.001,7348,2021-01-15 19:05:03:873
0.17,-9.79,-0.043,0,0,0.001,7358,2021-01-15 19:05:03:883
0.17,-9.79,-0.043,0,0,0.001,7368,2021-01-15 19:05:03:893
0.17,-9.79,-0.043,0,0,0.001,7378,2021-01-15 19:05:03:903
0.17,-9.79,-0.043,0,0,0.001,7388,2021-01-15 19:05:03:913
0.17,-9.79,-0.043,0,0,0.001,7398,2021-01-15 19:05:03:923
0.17,-9.79,-0.043,0,0,0.001,7408,2021-01-15 19:05:03:933
0.17,-9.79,-0.043,0,0,0.001,7418,2021-01-15 19:05:03:943
0.175,-9.807,-0.065,0,0,0,7428,2021-01-15 19:05:03:953
0.175,-9.807,-0.065,0,0,0,7438,2021-01-15 19:05:03:963
0.175,-9.807,-0.065,0,0,0,7447,2021-01-15 19:05:03:972
0.175,-9.807,-0.065,0,0,0,7458,2021-01-15 19:05:03:983
0.175,-9.807,-0.065,0,0,0,7468,2021-01-15 19:05:03:993
0.175,-9.807,-0.065,0,0,0,7478,2021-01-15 19:05:04:003
0.177,-9.795,-0.036,0,0,0,7487,2021-01-15 19:05:04:012
0.177,-9.795,-0.036,0,0,0,7498,2021-01-15 19:05:04:023
0.177,-9.795,-0.036,0,0,0,7508,2021-01-15 19:05:04:033
0.177,-9.795,-0.036,0,0,0,7518,2021-01-15 19:05:04:043
0.177,-9.795,-0.036,0,0,0,7528,2021-01-15 19:05:04:053
0.177,-9.795,-0.036,0,0,0,7538,2021-01-15 19:05:04:063
0.168,-9.776,-0.043,0,0,0,7547,2021-01-15 19:05:04:072
0.168,-9.776,-0.043,0,0,0,7558,2021-01-15 19:05:04:083
0.168,-9.776,-0.043,0,0,0,7568,2021-01-15 19:05:04:093
0.168,-9.776,-0.043,0,0,0,7577,2021-01-15 19:05:04:102
0.168,-9.776,-0.043,0,0,0,7587,2021-01-15 19:05:04:112
0.168,-9.776,-0.043,0,0,0,7598,2021-01-15 19:05:04:123
0.163,-9.781,-0.055,0,0,0,7607,2021-01-15 19:05:04:132
0.163,-9.781,-0.055,0,0,0,7618,2021-01-15 19:05:04:143
0.163,-9.781,-0.055,0,0,0,7628,2021-01-15 19:05:04:153
0.163,-9.781,-0.055,0,0,0,7638,2021-01-15 19:05:04:163
0.163,-9.781,-0.055,0,0,0,7647,2021-01-15 19:05:04:172
0.163,-9.781,-0.055,0,0,0,7658,2021-01-15 19:05:04:183
0.158,-9.783,-0.053,0,0,0,7668,2021-01-15 19:05:04:193
0.158,-9.783,-0.053,0,0,0,7679,2021-01-15 19:05:04:204
0.158,-9.783,-0.053,0,0,0,7688,2021-01-15 19:05:04:213
0.158,-9.783,-0.053,0,0,0,7698,2021-01-15 19:05:04:223
0.158,-9.783,-0.053,0,0,0,7708,2021-01-15 19:05:04:233
0.158,-9.783,-0.053,0,0,0,7718,2021-01-15 19:05:04:243
0.17,-9.797,-0.053,0,0,0,7728,2021-01-15 19:05:04:253
0.17,-9.797,-0.053,0,0,0,7738,2021-01-15 19:05:04:263
0.17,-9.797,-0.053,0,0,0,7748,2021-01-15 19:05:04:273
0.17,-9.797,-0.053,0,0,0,7764,2021-01-15 19:05:04:289
0.17,-9.797,-0.053,0,0,0,7768,2021-01-15 19:05:04:293
0.17,-9.797,-0.053,0,0,0,7780,2021-01-15 19:05:04:305
0.165,-9.781,-0.053,0,0,0,7788,2021-01-15 19:05:04:313
0.165,-9.781,-0.053,0,0,0,7800,2021-01-15 19:05:04:325
0.165,-9.781,-0.053,0,0,0,7808,2021-01-15 19:05:04:333
0.165,-9.781,-0.053,0,0,0,7818,2021-01-15 19:05:04:343
0.165,-9.781,-0.053,0,0,0,7828,2021-01-15 19:05:04:353
0.165,-9.781,-0.053,0,0,0,7837,2021-01-15 19:05:04:362
0.184,-9.797,-0.06,0,0,0,7848,2021-01-15 19:05:04:373
0.184,-9.797,-0.06,0,0,0,7859,2021-01-15 19:05:04:384
0.184,-9.797,-0.06,0,0,0,7868,2021-01-15 19:05:04:393
0.184,-9.797,-0.06,0,0,0,7879,2021-01-15 19:05:04:404
0.184,-9.797,-0.06,0,0,0,7888,2021-01-15 19:05:04:413
0.184,-9.797,-0.06,0,0,0,7898,2021-01-15 19:05:04:423
0.18,-9.8,-0.055,0,0,0.001,7907,2021-01-15 19:05:04:432
0.18,-9.8,-0.055,0,0,0.001,7918,2021-01-15 19:05:04:443
0.18,-9.8,-0.055,0,0,0.001,7928,2021-01-15 19:05:04:453
0.18,-9.8,-0.055,0,0,0.001,7938,2021-01-15 19:05:04:463
0.18,-9.8,-0.055,0,0,0.001,7949,2021-01-15 19:05:04:474
0.18,-9.8,-0.055,0,0,0.001,7958,2021-01-15 19:05:04:483
0.163,-9.802,-0.043,0,0,0.001,7968,2021-01-15 19:05:04:493
0.163,-9.802,-0.043,0,0,0.001,7981,2021-01-15 19:05:04:506
0.163,-9.802,-0.043,0,0,0.001,7988,2021-01-15 19:05:04:513
0.163,-9.802,-0.043,0,0,0.001,7998,2021-01-15 19:05:04:523
0.163,-9.802,-0.043,0,0,0.001,8011,2021-01-15 19:05:04:536
0.163,-9.802,-0.043,0,0,0.001,8018,2021-01-15 19:05:04:543
0.175,-9.802,-0.062,0,0,0,8028,2021-01-15 19:05:04:553
0.175,-9.802,-0.062,0,0,0,8038,2021-01-15 19:05:04:563
0.175,-9.802,-0.062,0,0,0,8048,2021-01-15 19:05:04:573
0.175,-9.802,-0.062,0,0,0,8064,2021-01-15 19:05:04:589
0.175,-9.802,-0.062,0,0,0,8068,2021-01-15 19:05:04:593
0.175,-9.802,-0.062,0,0,0,8079,2021-01-15 19:05:04:604
0.163,-9.79,-0.034,0,0,0,8088,2021-01-15 19:05:04:613
0.163,-9.79,-0.034,0,0,0,8098,2021-01-15 19:05:04:623
0.163,-9.79,-0.034,0,0,0,8108,2021-01-15 19:05:04:633
0.163,-9.79,-0.034,0,0,0,8118,2021-01-15 19:05:04:643
0.163,-9.79,-0.034,0,0,0,8128,2021-01-15 19:05:04:653
0.163,-9.79,-0.034,0,0,0,8138,2021-01-15 19:05:04:663
0.168,-9.785,-0.026,0,0,0,8148,2021-01-15 19:05:04:673
0.168,-9.785,-0.026,0,0,0,8158,2021-01-15 19:05:04:683
0.168,-9.785,-0.026,0,0,0,8168,2021-01-15 19:05:04:693
0.168,-9.785,-0.026,0,0,0,8180,2021-01-15 19:05:04:705
0.168,-9.785,-0.026,0,0,0,8188,2021-01-15 19:05:04:713
0.168,-9.769,-0.053,0,0,0,8203,2021-01-15 19:05:04:728
0.168,-9.769,-0.053,0,0,0,8208,2021-01-15 19:05:04:733
0.168,-9.769,-0.053,0,0,0,8218,2021-01-15 19:05:04:743
0.168,-9.769,-0.053,0,0,0,8228,2021-01-15 19:05:04:753
0.168,-9.769,-0.053,0,0,0,8238,2021-01-15 19:05:04:763
0.168,-9.769,-0.053,0,0,0,8248,2021-01-15 19:05:04:773
0.168,-9.769,-0.053,0,0,0,8258,2021-01-15 19:05:04:783
0.151,-9.8,-0.045,0,0,0.001,8267,2021-01-15 19:05:04:792
0.151,-9.8,-0.045,0,0,0.001,8281,2021-01-15 19:05:04:806
0.151,-9.8,-0.045,0,0,0.001,8288,2021-01-15 19:05:04:813
0.151,-9.8,-0.045,0,0,0.001,8298,2021-01-15 19:05:04:823
0.151,-9.8,-0.045,0,0,0.001,8312,2021-01-15 19:05:04:837
0.151,-9.8,-0.045,0,0,0.001,8318,2021-01-15 19:05:04:843
0.175,-9.797,-0.053,0,0,0.001,8328,2021-01-15 19:05:04:853
0.175,-9.797,-0.053,0,0,0.001,8338,2021-01-15 19:05:04:863
0.175,-9.797,-0.053,0,0,0.001,8348,2021-01-15 19:05:04:873
0.175,-9.797,-0.053,0,0,0.001,8358,2021-01-15 19:05:04:883
0.175,-9.797,-0.053,0,0,0.001,8368,2021-01-15 19:05:04:893
0.175,-9.797,-0.053,0,0,0.001,8378,2021-01-15 19:05:04:903
0.182,-9.781,-0.041,0,0,0,8388,2021-01-15 19:05:04:913
0.182,-9.781,-0.041,0,0,0,8399,2021-01-15 19:05:04:924
0.182,-9.781,-0.041,0,0,0,8407,2021-01-15 19:05:04:932
0.182,-9.781,-0.041,0,0,0,8434,2021-01-15 19:05:04:959
0.182,-9.781,-0.041,0,0,0,8438,2021-01-15 19:05:04:963
0.182,-9.781,-0.041,0,0,0,8439,2021-01-15 19:05:04:964
0.168,-9.776,-0.062,0,0,0,8448,2021-01-15 19:05:04:973
0.168,-9.776,-0.062,0,0,0,8458,2021-01-15 19:05:04:983
0.168,-9.776,-0.062,0,0,0,8467,2021-01-15 19:05:04:992
0.168,-9.776,-0.062,0,0,0,8478,2021-01-15 19:05:05:003
0.168,-9.776,-0.062,0,0,0,8487,2021-01-15 19:05:05:012
0.168,-9.776,-0.062,0,0,0,8498,2021-01-15 19:05:05:023
0.158,-9.785,-0.038,0,0,0,8508,2021-01-15 19:05:05:033
0.158,-9.785,-0.038,0,0,0,8528,2021-01-15 19:05:05:053
0.158,-9.785,-0.038,0,0,0,8529,2021-01-15 19:05:05:054
0.158,-9.785,-0.038,0,0,0,8538,2021-01-15 19:05:05:063
0.158,-9.785,-0.038,0,0,0,8551,2021-01-15 19:05:05:076
0.172,-9.781,-0.062,0,0,0,8568,2021-01-15 19:05:05:093
0.172,-9.781,-0.062,0,0,0,8569,2021-01-15 19:05:05:094
0.172,-9.781,-0.062,0,0,0,8578,2021-01-15 19:05:05:103
0.172,-9.781,-0.062,0,0,0,8588,2021-01-15 19:05:05:113
0.172,-9.781,-0.062,0,0,0,8598,2021-01-15 19:05:05:123
0.172,-9.781,-0.062,0,0,0,8608,2021-01-15 19:05:05:133
0.172,-9.781,-0.062,0,0,0,8618,2021-01-15 19:05:05:143
0.16,-9.797,-0.053,0,0,0,8628,2021-01-15 19:05:05:153
0.16,-9.797,-0.053,0,0,0,8638,2021-01-15 19:05:05:163
0.16,-9.797,-0.053,0,0,0,8648,2021-01-15 19:05:05:173
0.16,-9.797,-0.053,0,0,0,8659,2021-01-15 19:05:05:184
0.16,-9.797,-0.053,0,0,0,8668,2021-01-15 19:05:05:193
0.16,-9.797,-0.053,0,0,0,8678,2021-01-15 19:05:05:203
0.172,-9.783,-0.038,0,0,0,8688,2021-01-15 19:05:05:213
0.172,-9.783,-0.038,0,0,0,8698,2021-01-15 19:05:05:223
0.172,-9.783,-0.038,0,0,0,8708,2021-01-15 19:05:05:233
0.172,-9.783,-0.038,0,0,0,8719,2021-01-15 19:05:05:244
0.172,-9.783,-0.038,0,0,0,8728,2021-01-15 19:05:05:253
0.172,-9.783,-0.038,0,0,0,8740,2021-01-15 19:05:05:265
0.18,-9.8,-0.034,0,0,0,8748,2021-01-15 19:05:05:273
0.18,-9.8,-0.034,0,0,0,8759,2021-01-15 19:05:05:284
0.18,-9.8,-0.034,0,0,0,8772,2021-01-15 19:05:05:297
0.18,-9.8,-0.034,0,0,0,8779,2021-01-15 19:05:05:304
0.18,-9.8,-0.034,0,0,0,8788,2021-01-15 19:05:05:313
0.18,-9.8,-0.034,0,0,0,8798,2021-01-15 19:05:05:323
0.177,-9.793,-0.043,0,0,0,8808,2021-01-15 19:05:05:333
0.177,-9.793,-0.043,0,0,0,8819,2021-01-15 19:05:05:344
0.177,-9.793,-0.043,0,0,0,8835,2021-01-15 19:05:05:360
0.177,-9.793,-0.043,0,0,0,8838,2021-01-15 19:05:05:363
0.177,-9.793,-0.043,0,0,0,8850,2021-01-15 19:05:05:375
0.177,-9.793,-0.043,0,0,0,8858,2021-01-15 19:05:05:383
0.172,-9.781,-0.048,0,0,0.001,8868,2021-01-15 19:05:05:393
0.172,-9.781,-0.048,0,0,0.001,8877,2021-01-15 19:05:05:402
0.172,-9.781,-0.048,0,0,0.001,8888,2021-01-15 19:05:05:413
0.172,-9.781,-0.048,0,0,0.001,8898,2021-01-15 19:05:05:423
0.172,-9.781,-0.048,0,0,0.001,8908,2021-01-15 19:05:05:433
0.172,-9.781,-0.048,0,0,0.001,8918,2021-01-15 19:05:05:443
0.168,-9.788,-0.057,0,0,0.001,8928,2021-01-15 19:05:05:453
0.168,-9.788,-0.057,0,0,0.001,8938,2021-01-15 19:05:05:463
0.168,-9.788,-0.057,0,0,0.001,8948,2021-01-15 19:05:05:473
0.168,-9.788,-0.057,0,0,0.001,8958,2021-01-15 19:05:05:483
0.168,-9.788,-0.057,0,0,0.001,8967,2021-01-15 19:05:05:492
0.18,-9.795,-0.043,0,0,0.001,8983,2021-01-15 19:05:05:508
0.18,-9.795,-0.043,0,0,0.001,8988,2021-01-15 19:05:05:513
0.18,-9.795,-0.043,0,0,0.001,8998,2021-01-15 19:05:05:523
0.18,-9.795,-0.043,0,0,0.001,9008,2021-01-15 19:05:05:533
0.18,-9.795,-0.043,0,0,0.001,9018,2021-01-15 19:05:05:543
0.18,-9.795,-0.043,0,0,0.001,9028,2021-01-15 19:05:05:553
0.18,-9.795,-0.043,0,0,0.001,9038,2021-01-15 19:05:05:563
0.153,-9.783,-0.05,0,0,0.001,9049,2021-01-15 19:05:05:574
0.153,-9.783,-0.05,0,0,0.001,9058,2021-01-15 19:05:05:583
0.153,-9.783,-0.05,0,0,0.001,9068,2021-01-15 19:05:05:593
0.153,-9.783,-0.05,0,0,0.001,9078,2021-01-15 19:05:05:603
0.153,-9.783,-0.05,0,0,0.001,9088,2021-01-15 19:05:05:613
0.153,-9.783,-0.05,0,0,0.001,9098,2021-01-15 19:05:05:623
0.172,-9.793,-0.053,0,0,0,9108,2021-01-15 19:05:05:633
0.172,-9.793,-0.053,0,0,0,9119,2021-01-15 19:05:05:644
0.172,-9.793,-0.053,0,0,0,9128,2021-01-15 19:05:05:653
0.172,-9.793,-0.053,0,0,0,9138,2021-01-15 19:05:05:663
0.172,-9.793,-0.053,0,0,0,9150,2021-01-15 19:05:05:675
0.172,-9.793,-0.053,0,0,0,9164,2021-01-15 19:05:05:689
0.165,-9.795,-0.045,0,0,0,9171,2021-01-15 19:05:05:696
0.165,-9.795,-0.045,0,0,0,9178,2021-01-15 19:05:05:703
0.165,-9.795,-0.045,0,0,0,9188,2021-01-15 19:05:05:713
0.165,-9.795,-0.045,0,0,0,9200,2021-01-15 19:05:05:725
0.165,-9.795,-0.045,0,0,0,9208,2021-01-15 19:05:05:733
0.165,-9.795,-0.045,0,0,0,9218,2021-01-15 19:05:05:743
0.168,-9.785,-0.067,0,0,0.001,9228,2021-01-15 19:05:05:753
0.168,-9.785,-0.067,0,0,0.001,9238,2021-01-15 19:05:05:763
0.168,-9.785,-0.067,0,0,0.001,9248,2021-01-15 19:05:05:773
0.168,-9.785,-0.067,0,0,0.001,9258,2021-01-15 19:05:05:783
0.168,-9.785,-0.067,0,0,0.001,9270,2021-01-15 19:05:05:795
0.168,-9.785,-0.067,0,0,0.001,9281,2021-01-15 19:05:05:806
0.168,-9.795,-0.053,0,0,0.001,9287,2021-01-15 19:05:05:812
0.168,-9.795,-0.053,0,0,0.001,9300,2021-01-15 19:05:05:825
0.168,-9.795,-0.053,0,0,0.001,9308,2021-01-15 19:05:05:833
0.168,-9.795,-0.053,0,0,0.001,9318,2021-01-15 19:05:05:843
0.168,-9.795,-0.053,0,0,0.001,9330,2021-01-15 19:05:05:855
0.168,-9.795,-0.053,0,0,0.001,9338,2021-01-15 19:05:05:863
0.182,-9.785,-0.057,0,0,0.001,9348,2021-01-15 19:05:05:873
0.182,-9.785,-0.057,0,0,0.001,9358,2021-01-15 19:05:05:883
0.182,-9.785,-0.057,0,0,0.001,9367,2021-01-15 19:05:05:892
0.182,-9.785,-0.057,0,0,0.001,9387,2021-01-15 19:05:05:912
0.182,-9.785,-0.057,0,0,0.001,9388,2021-01-15 19:05:05:913
0.182,-9.785,-0.057,0,0,0.001,9398,2021-01-15 19:05:05:923
0.163,-9.8,-0.067,0,0,0.001,9408,2021-01-15 19:05:05:933
0.163,-9.8,-0.067,0,0,0.001,9419,2021-01-15 19:05:05:944
0.163,-9.8,-0.067,0,0,0.001,9428,2021-01-15 19:05:05:953
0.163,-9.8,-0.067,0,0,0.001,9448,2021-01-15 19:05:05:973
0.163,-9.8,-0.067,0,0,0.001,9449,2021-01-15 19:05:05:974
0.163,-9.8,-0.067,0,0,0.001,9458,2021-01-15 19:05:05:983
0.17,-9.793,-0.05,0,0,0,9468,2021-01-15 19:05:05:993
0.17,-9.793,-0.05,0,0,0,9478,2021-01-15 19:05:06:003
0.17,-9.793,-0.05,0,0,0,9488,2021-01-15 19:05:06:013
0.17,-9.793,-0.05,0,0,0,9498,2021-01-15 19:05:06:023
0.17,-9.793,-0.05,0,0,0,9511,2021-01-15 19:05:06:036
0.17,-9.793,-0.05,0,0,0,9519,2021-01-15 19:05:06:044
0.17,-9.793,-0.065,0,0,0,9530,2021-01-15 19:05:06:055
0.17,-9.793,-0.065,0,0,0,9538,2021-01-15 19:05:06:063
0.17,-9.793,-0.065,0,0,0,9552,2021-01-15 19:05:06:077
0.17,-9.793,-0.065,0,0,0,9558,2021-01-15 19:05:06:083
0.17,-9.793,-0.065,0,0,0,9569,2021-01-15 19:05:06:094
0.17,-9.793,-0.065,0,0,0,9578,2021-01-15 19:05:06:103
0.18,-9.795,-0.031,0,0,0,9589,2021-01-15 19:05:06:114
0.18,-9.795,-0.031,0,0,0,9600,2021-01-15 19:05:06:125
0.18,-9.795,-0.031,0,0,0,9611,2021-01-15 19:05:06:136
0.18,-9.795,-0.031,0,0,0,9619,2021-01-15 19:05:06:144
0.18,-9.795,-0.031,0,0,0,9627,2021-01-15 19:05:06:152
0.18,-9.795,-0.031,0,0,0,9638,2021-01-15 19:05:06:163
0.16,-9.797,-0.067,0,0,0,9649,2021-01-15 19:05:06:174
0.16,-9.797,-0.067,0,0,0,9659,2021-01-15 19:05:06:184
0.16,-9.797,-0.067,0,0,0,9668,2021-01-15 19:05:06:193
0.16,-9.797,-0.067,0,0,0,9679,2021-01-15 19:05:06:204
0.16,-9.797,-0.067,0,0,0,9688,2021-01-15 19:05:06:213
0.16,-9.797,-0.067,0,0,0,9698,2021-01-15 19:05:06:223
0.175,-9.778,-0.045,0,0,0,9708,2021-01-15 19:05:06:233
0.175,-9.778,-0.045,0,0,0,9718,2021-01-15 19:05:06:243
0.175,-9.778,-0.045,0,0,0,9727,2021-01-15 19:05:06:252
0.175,-9.778,-0.045,0,0,0,9738,2021-01-15 19:05:06:263
0.175,-9.778,-0.045,0,0,0,9748,2021-01-15 19:05:06:273
0.175,-9.778,-0.045,0,0,0,9758,2021-01-15 19:05:06:283
0.172,-9.781,-0.043,0,0,0,9769,2021-01-15 19:05:06:294
0.172,-9.781,-0.043,0,0,0,9778,2021-01-15 19:05:06:303
0.172,-9.781,-0.043,0,0,0,9789,2021-01-15 19:05:06:314
0.172,-9.781,-0.043,0,0,0,9798,2021-01-15 19:05:06:323
0.172,-9.781,-0.043,0,0,0,9808,2021-01-15 19:05:06:333
0.172,-9.781,-0.043,0,0,0,9819,2021-01-15 19:05:06:344
0.165,-9.795,-0.05,0,0,0,9838,2021-01-15 19:05:06:363
0.165,-9.795,-0.05,0,0,0,9843,2021-01-15 19:05:06:368
0.165,-9.795,-0.05,0,0,0,9848,2021-01-15 19:05:06:373
0.165,-9.795,-0.05,0,0,0,9859,2021-01-15 19:05:06:384
0.165,-9.795,-0.05,0,0,0,9868,2021-01-15 19:05:06:393
0.165,-9.795,-0.05,0,0,0,9878,2021-01-15 19:05:06:403
0.17,-9.783,-0.057,0,0,0,9890,2021-01-15 19:05:06:415
0.17,-9.783,-0.057,0,0,0,9901,2021-01-15 19:05:06:426
0.17,-9.783,-0.057,0,0,0,9908,2021-01-15 19:05:06:433
0.17,-9.783,-0.057,0,0,0,9918,2021-01-15 19:05:06:443
0.17,-9.783,-0.057,0,0,0,9928,2021-01-15 19:05:06:453
0.17,-9.783,-0.057,0,0,0,9938,2021-01-15 19:05:06:463
0.175,-9.785,-0.053,0,0,0.001,9949,2021-01-15 19:05:06:474
0.175,-9.785,-0.053,0,0,0.001,9958,2021-01-15 19:05:06:483
0.175,-9.785,-0.053,0,0,0.001,9968,2021-01-15 19:05:06:493
0.175,-9.785,-0.053,0,0,0.001,9978,2021-01-15 19:05:06:503
0.175,-9.785,-0.053,0,0,0.001,9989,2021-01-15 19:05:06:514
0.175,-9.785,-0.053,0,0,0.001,9998,2021-01-15 19:05:06:523
0.163,-9.783,-0.053,0,0,0.001,10008,2021-01-15 19:05:06:533
0.163,-9.783,-0.053,0,0,0.001,10019,2021-01-15 19:05:06:544
0.163,-9.783,-0.053,0,0,0.001,10028,2021-01-15 19:05:06:553
0.163,-9.783,-0.053,0,0,0.001,10039,2021-01-15 19:05:06:564
0.163,-9.783,-0.053,0,0,0.001,10048,2021-01-15 19:05:06:573
0.163,-9.783,-0.053,0,0,0.001,10058,2021-01-15 19:05:06:583
0.18,-9.793,-0.053,0,0,0.001,10072,2021-01-15 19:05:06:597
0.18,-9.793,-0.053,0,0,0.001,10078,2021-01-15 19:05:06:603
0.18,-9.793,-0.053,0,0,0.001,10088,2021-01-15 19:05:06:613
0.18,-9.793,-0.053,0,0,0.001,10098,2021-01-15 19:05:06:623
0.18,-9.793,-0.053,0,0,0.001,10108,2021-01-15 19:05:06:633
0.18,-9.793,-0.053,0,0,0.001,10119,2021-01-15 19:05:06:644
0.156,-9.788,-0.036,0,0,0.001,10128,2021-01-15 19:05:06:653
0.156,-9.788,-0.036,0,0,0.001,10139,2021-01-15 19:05:06:664
0.156,-9.788,-0.036,0,0,0.001,10148,2021-01-15 19:05:06:673
0.156,-9.788,-0.036,0,0,0.001,10161,2021-01-15 19:05:06:686
0.156,-9.788,-0.036,0,0,0.001,10174,2021-01-15 19:05:06:699
0.156,-9.788,-0.036,0,0,0.001,10178,2021-01-15 19:05:06:703
0.165,-9.785,-0.041,0,0,0,10189,2021-01-15 19:05:06:714
0.165,-9.785,-0.041,0,0,0,10197,2021-01-15 19:05:06:722
0.165,-9.785,-0.041,0,0,0,10207,2021-01-15 19:05:06:732
0.165,-9.785,-0.041,0,0,0,10217,2021-01-15 19:05:06:742
0.165,-9.785,-0.041,0,0,0,10228,2021-01-15 19:05:06:753
0.165,-9.785,-0.041,0,0,0,10238,2021-01-15 19:05:06:763
0.17,-9.793,-0.043,0,0,0,10248,2021-01-15 19:05:06:773
0.17,-9.793,-0.043,0,0,0,10259,2021-01-15 19:05:06:784
0.17,-9.793,-0.043,0,0,0,10268,2021-01-15 19:05:06:793
0.17,-9.793,-0.043,0,0,0,10279,2021-01-15 19:05:06:804
0.17,-9.793,-0.043,0,0,0,10288,2021-01-15 19:05:06:813
0.17,-9.793,-0.043,0,0,0,10299,2021-01-15 19:05:06:824
0.165,-9.8,-0.05,0,0,0,10309,2021-01-15 19:05:06:834
0.165,-9.8,-0.05,0,0,0,10318,2021-01-15 19:05:06:843
0.165,-9.8,-0.05,0,0,0,10328,2021-01-15 19:05:06:853
0.165,-9.8,-0.05,0,0,0,10339,2021-01-15 19:05:06:864
0.165,-9.8,-0.05,0,0,0,10348,2021-01-15 19:05:06:873
0.165,-9.8,-0.05,0,0,0,10358,2021-01-15 19:05:06:883
0.18,-9.802,-0.055,0,0,0,10369,2021-01-15 19:05:06:894
0.18,-9.802,-0.055,0,0,0,10378,2021-01-15 19:05:06:903
0.18,-9.802,-0.055,0,0,0,10393,2021-01-15 19:05:06:918
0.18,-9.802,-0.055,0,0,0,10398,2021-01-15 19:05:06:923
0.18,-9.802,-0.055,0,0,0,10408,2021-01-15 19:05:06:933
0.18,-9.802,-0.055,0,0,0,10418,2021-01-15 19:05:06:943
0.17,-9.785,-0.057,0,0,0.001,10431,2021-01-15 19:05:06:956
0.17,-9.785,-0.057,0,0,0.001,10439,2021-01-15 19:05:06:964
0.17,-9.785,-0.057,0,0,0.001,10448,2021-01-15 19:05:06:973
0.17,-9.785,-0.057,0,0,0.001,10457,2021-01-15 19:05:06:982
0.17,-9.785,-0.057,0,0,0.001,10468,2021-01-15 19:05:06:993
0.17,-9.785,-0.057,0,0,0.001,10479,2021-01-15 19:05:07:004
0.172,-9.797,-0.041,0,0,0.001,10488,2021-01-15 19:05:07:013
0.172,-9.797,-0.041,0,0,0.001,10498,2021-01-15 19:05:07:023
0.172,-9.797,-0.041,0,0,0.001,10508,2021-01-15 19:05:07:033
0.172,-9.797,-0.041,0,0,0.001,10521,2021-01-15 19:05:07:046
0.172,-9.797,-0.041,0,0,0.001,10529,2021-01-15 19:05:07:054
0.172,-9.797,-0.041,0,0,0.001,10538,2021-01-15 19:05:07:063
0.172,-9.795,-0.045,0,0,0.001,10550,2021-01-15 19:05:07:075
0.172,-9.795,-0.045,0,0,0.001,10558,2021-01-15 19:05:07:083
0.172,-9.795,-0.045,0,0,0.001,10569,2021-01-15 19:05:07:094
0.172,-9.795,-0.045,0,0,0.001,10578,2021-01-15 19:05:07:103
0.172,-9.795,-0.045,0,0,0.001,10588,2021-01-15 19:05:07:113
0.153,-9.783,-0.043,0,0,0.001,10608,2021-01-15 19:05:07:133
0.153,-9.783,-0.043,0,0,0.001,10609,2021-01-15 19:05:07:134
0.153,-9.783,-0.043,0,0,0.001,10618,2021-01-15 19:05:07:143
0.153,-9.783,-0.043,0,0,0.001,10627,2021-01-15 19:05:07:152
0.153,-9.783,-0.043,0,0,0.001,10638,2021-01-15 19:05:07:163
0.153,-9.783,-0.043,0,0,0.001,10648,2021-01-15 19:05:07:173
0.153,-9.783,-0.043,0,0,0.001,10658,2021-01-15 19:05:07:183
0.158,-9.793,-0.048,0,0,0,10670,2021-01-15 19:05:07:195
0.158,-9.793,-0.048,0,0,0,10677,2021-01-15 19:05:07:202
0.158,-9.793,-0.048,0,0,0,10687,2021-01-15 19:05:07:212
0.158,-9.793,-0.048,0,0,0,10698,2021-01-15 19:05:07:223
0.158,-9.793,-0.048,0,0,0,10708,2021-01-15 19:05:07:233
0.172,-9.788,-0.041,0,0,0,10721,2021-01-15 19:05:07:246
0.172,-9.788,-0.041,0,0,0,10727,2021-01-15 19:05:07:252
0.172,-9.788,-0.041,0,0,0,10738,2021-01-15 19:05:07:263
0.172,-9.788,-0.041,0,0,0,10749,2021-01-15 19:05:07:274
0.172,-9.788,-0.041,0,0,0,10758,2021-01-15 19:05:07:283
0.172,-9.788,-0.041,0,0,0,10768,2021-01-15 19:05:07:293
0.172,-9.788,-0.041,0,0,0,10778,2021-01-15 19:05:07:303
0.177,-9.8,-0.05,0,0,0,10794,2021-01-15 19:05:07:319
0.177,-9.8,-0.05,0,0,0,10798,2021-01-15 19:05:07:323
0.177,-9.8,-0.05,0,0,0,10809,2021-01-15 19:05:07:334
0.177,-9.8,-0.05,0,0,0,10818,2021-01-15 19:05:07:343
0.177,-9.8,-0.05,0,0,0,10828,2021-01-15 19:05:07:353
0.177,-9.8,-0.05,0,0,0,10838,2021-01-15 19:05:07:363
0.172,-9.776,-0.062,0,0,0,10848,2021-01-15 19:05:07:373
0.172,-9.776,-0.062,0,0,0,10858,2021-01-15 19:05:07:383
0.172,-9.776,-0.062,0,0,0,10868,2021-01-15 19:05:07:393
0.172,-9.776,-0.062,0,0,0,10878,2021-01-15 19:05:07:403
0.172,-9.776,-0.062,0,0,0,10888,2021-01-15 19:05:07:413
0.172,-9.776,-0.062,0,0,0,10898,2021-01-15 19:05:07:423
0.182,-9.783,-0.034,0,0,0,10908,2021-01-15 19:05:07:433
0.182,-9.783,-0.034,0,0,0,10918,2021-01-15 19:05:07:443
0.182,-9.783,-0.034,0,0,0,10929,2021-01-15 19:05:07:454
0.182,-9.783,-0.034,0,0,0,10939,2021-01-15 19:05:07:464
0.182,-9.783,-0.034,0,0,0,10948,2021-01-15 19:05:07:473
0.182,-9.783,-0.034,0,0,0,10958,2021-01-15 19:05:07:483
0.177,-9.788,-0.05,0,0,0,10968,2021-01-15 19:05:07:493
0.177,-9.788,-0.05,0,0,0,10978,2021-01-15 19:05:07:503
0.177,-9.788,-0.05,0,0,0,10988,2021-01-15 19:05:07:513
0.177,-9.788,-0.05,0,0,0,10997,2021-01-15 19:05:07:522
0.177,-9.788,-0.05,0,0,0,11008,2021-01-15 19:05:07:533
0.177,-9.788,-0.05,0,0,0,11020,2021-01-15 19:05:07:545
0.151,-9.793,-0.057,0,0,0,11030,2021-01-15 19:05:07:555
0.151,-9.793,-0.057,0,0,0,11037,2021-01-15 19:05:07:562
0.151,-9.793,-0.057,0,0,0,11048,2021-01-15 19:05:07:573
0.151,-9.793,-0.057,0,0,0,11058,2021-01-15 19:05:07:583
0.151,-9.793,-0.057,0,0,0,11070,2021-01-15 19:05:07:595
0.151,-9.793,-0.057,0,0,0,11078,2021-01-15 19:05:07:603
0.177,-9.788,-0.041,0,0,0,11087,2021-01-15 19:05:07:612
0.177,-9.788,-0.041,0,0,0,11098,2021-01-15 19:05:07:623
0.177,-9.788,-0.041,0,0,0,11108,2021-01-15 19:05:07:633
0.177,-9.788,-0.041,0,0,0,11118,2021-01-15 19:05:07:643
0.177,-9.788,-0.041,0,0,0,11128,2021-01-15 19:05:07:653
0.177,-9.788,-0.041,0,0,0,11138,2021-01-15 19:05:07:663
0.156,-9.788,-0.053,0,0,0,11155,2021-01-15 19:05:07:680
0.156,-9.788,-0.053,0,0,0,11158,2021-01-15 19:05:07:683
0.156,-9.788,-0.053,0,0,0,11168,2021-01-15 19:05:07:693
0.156,-9.788,-0.053,0,0,0,11178,2021-01-15 19:05:07:703
0.156,-9.788,-0.053,0,0,0,11188,2021-01-15 19:05:07:713
0.156,-9.788,-0.053,0,0,0,11198,2021-01-15 19:05:07:723
0.17,-9.781,-0.048,0,0,0,11208,2021-01-15 19:05:07:733
0.17,-9.781,-0.048,0,0,0,11218,2021-01-15 19:05:07:743
0.17,-9.781,-0.048,0,0,0,11229,2021-01-15 19:05:07:754
0.17,-9.781,-0.048,0,0,0,11238,2021-01-15 19:05:07:763
0.17,-9.781,-0.048,0,0,0,11248,2021-01-15 19:05:07:773
0.17,-9.781,-0.048,0,0,0,11258,2021-01-15 19:05:07:783
0.17,-9.795,-0.024,0,-0.001,0,11268,2021-01-15 19:05:07:793
0.17,-9.795,-0.024,0,-0.001,0,11278,2021-01-15 19:05:07:803
0.17,-9.795,-0.024,0,-0.001,0,11288,2021-01-15 19:05:07:813
0.17,-9.795,-0.024,0,-0.001,0,11297,2021-01-15 19:05:07:822
0.17,-9.795,-0.024,0,-0.001,0,11308,2021-01-15 19:05:07:833
0.17,-9.795,-0.024,0,-0.001,0,11318,2021-01-15 19:05:07:843
0.17,-9.795,-0.024,0,-0.001,0,11328,2021-01-15 19:05:07:853
0.175,-9.788,-0.048,0,-0.001,0,11338,2021-01-15 19:05:07:863
0.175,-9.788,-0.048,0,-0.001,0,11348,2021-01-15 19:05:07:873
0.175,-9.788,-0.048,0,-0.001,0,11359,2021-01-15 19:05:07:884
0.175,-9.788,-0.048,0,-0.001,0,11368,2021-01-15 19:05:07:893
0.175,-9.788,-0.048,0,-0.001,0,11378,2021-01-15 19:05:07:903
0.168,-9.79,-0.041,0,0,0,11390,2021-01-15 19:05:07:915
0.168,-9.79,-0.041,0,0,0,11398,2021-01-15 19:05:07:923
0.168,-9.79,-0.041,0,0,0,11408,2021-01-15 19:05:07:933
0.168,-9.79,-0.041,0,0,0,11418,2021-01-15 19:05:07:943
0.168,-9.79,-0.041,0,0,0,11429,2021-01-15 19:05:07:954
0.168,-9.79,-0.041,0,0,0,11440,2021-01-15 19:05:07:965
0.165,-9.785,-0.05,0,0,0,11448,2021-01-15 19:05:07:973
0.165,-9.785,-0.05,0,0,0,11457,2021-01-15 19:05:07:982
0.165,-9.785,-0.05,0,0,0,11468,2021-01-15 19:05:07:993
0.165,-9.785,-0.05,0,0,0,11482,2021-01-15 19:05:08:007
0.165,-9.785,-0.05,0,0,0,11488,2021-01-15 19:05:08:013
0.165,-9.785,-0.05,0,0,0,11498,2021-01-15 19:05:08:023
0.17,-9.802,-0.053,0,-0.001,0,11509,2021-01-15 19:05:08:034
0.17,-9.802,-0.053,0,-0.001,0,11517,2021-01-15 19:05:08:042
0.17,-9.802,-0.053,0,-0.001,0,11528,2021-01-15 19:05:08:053
0.17,-9.802,-0.053,0,-0.001,0,11538,2021-01-15 19:05:08:063
0.17,-9.802,-0.053,0,-0.001,0,11548,2021-01-15 19:05:08:073
0.17,-9.802,-0.053,0,-0.001,0,11557,2021-01-15 19:05:08:082
0.17,-9.793,-0.045,0,-0.001,0,11568,2021-01-15 19:05:08:093
0.17,-9.793,-0.045,0,-0.001,0,11578,2021-01-15 19:05:08:103
0.17,-9.793,-0.045,0,-0.001,0,11591,2021-01-15 19:05:08:116
0.17,-9.793,-0.045,0,-0.001,0,11599,2021-01-15 19:05:08:124
0.17,-9.793,-0.045,0,-0.001,0,11608,2021-01-15 19:05:08:133
0.17,-9.793,-0.045,0,-0.001,0,11618,2021-01-15 19:05:08:143
0.172,-9.788,-0.036,0,0,0,11628,2021-01-15 19:05:08:153
0.172,-9.788,-0.036,0,0,0,11638,2021-01-15 19:05:08:163
0.172,-9.788,-0.036,0,0,0,11648,2021-01-15 19:05:08:173
0.172,-9.788,-0.036,0,0,0,11659,2021-01-15 19:05:08:184
0.172,-9.788,-0.036,0,0,0,11668,2021-01-15 19:05:08:193
0.172,-9.788,-0.036,0,0,0,11678,2021-01-15 19:05:08:203
0.17,-9.788,-0.057,0,0,0,11689,2021-01-15 19:05:08:214
0.17,-9.788,-0.057,0,0,0,11698,2021-01-15 19:05:08:223
0.17,-9.788,-0.057,0,0,0,11708,2021-01-15 19:05:08:233
0.17,-9.788,-0.057,0,0,0,11718,2021-01-15 19:05:08:243
0.17,-9.788,-0.057,0,0,0,11728,2021-01-15 19:05:08:253
0.17,-9.788,-0.057,0,0,0,11738,2021-01-15 19:05:08:263
0.16,-9.79,-0.05,0,0,0,11748,2021-01-15 19:05:08:273
0.16,-9.79,-0.05,0,0,0,11757,2021-01-15 19:05:08:282
0.16,-9.79,-0.05,0,0,0,11769,2021-01-15 19:05:08:294
0.16,-9.79,-0.05,0,0,0,11777,2021-01-15 19:05:08:302
0.16,-9.79,-0.05,0,0,0,11788,2021-01-15 19:05:08:313
0.16,-9.79,-0.05,0,0,0,11799,2021-01-15 19:05:08:324
0.163,-9.809,-0.048,0,0,0,11808,2021-01-15 19:05:08:333
0.163,-9.809,-0.048,0,0,0,11820,2021-01-15 19:05:08:345
0.163,-9.809,-0.048,0,0,0,11828,2021-01-15 19:05:08:353
0.163,-9.809,-0.048,0,0,0,11840,2021-01-15 19:05:08:365
0.163,-9.809,-0.048,0,0,0,11848,2021-01-15 19:05:08:373
0.163,-9.809,-0.048,0,0,0,11858,2021-01-15 19:05:08:383
0.172,-9.793,-0.053,0,0,0,11869,2021-01-15 19:05:08:394
0.172,-9.793,-0.053,0,0,0,11884,2021-01-15 19:05:08:409
0.172,-9.793,-0.053,0,0,0,11889,2021-01-15 19:05:08:414
0.172,-9.793,-0.053,0,0,0,11898,2021-01-15 19:05:08:423
0.172,-9.793,-0.053,0,0,0,11908,2021-01-15 19:05:08:433
0.172,-9.793,-0.053,0,0,0,11920,2021-01-15 19:05:08:445
0.172,-9.793,-0.053,0,0,0,11930,2021-01-15 19:05:08:455
0.177,-9.793,-0.036,0,0,0,11938,2021-01-15 19:05:08:463
0.177,-9.793,-0.036,0,0,0,11948,2021-01-15 19:05:08:473
0.177,-9.793,-0.036,0,0,0,11958,2021-01-15 19:05:08:483
0.177,-9.793,-0.036,0,0,0,11968,2021-01-15 19:05:08:493
0.177,-9.793,-0.036,0,0,0,11978,2021-01-15 19:05:08:503
0.177,-9.793,-0.036,0,0,0,11988,2021-01-15 19:05:08:513
0.177,-9.793,-0.036,0,0,0,11998,2021-01-15 19:05:08:523
0.163,-9.795,-0.045,0,0,0,12008,2021-01-15 19:05:08:533
0.163,-9.795,-0.045,0,0,0,12018,2021-01-15 19:05:08:543
0.163,-9.795,-0.045,0,0,0,12028,2021-01-15 19:05:08:553
0.163,-9.795,-0.045,0,0,0,12038,2021-01-15 19:05:08:563
0.163,-9.795,-0.045,0,0,0,12048,2021-01-15 19:05:08:573
0.163,-9.795,-0.045,0,0,0,12058,2021-01-15 19:05:08:583
0.163,-9.795,-0.045,0,0,0,12068,2021-01-15 19:05:08:593
0.168,-9.79,-0.045,0,0,0,12078,2021-01-15 19:05:08:603
0.168,-9.79,-0.045,0,0,0,12090,2021-01-15 19:05:08:615
0.168,-9.79,-0.045,0,0,0,12098,2021-01-15 19:05:08:623
0.168,-9.79,-0.045,0,0,0,12109,2021-01-15 19:05:08:634
0.168,-9.79,-0.045,0,0,0,12119,2021-01-15 19:05:08:644
0.168,-9.79,-0.045,0,0,0,12129,2021-01-15 19:05:08:654
0.168,-9.79,-0.045,0,0,0,12138,2021-01-15 19:05:08:663
0.168,-9.79,-0.045,0,0,0,12149,2021-01-15 19:05:08:674
0.158,-9.797,-0.053,0,0,0,12158,2021-01-15 19:05:08:683
0.158,-9.797,-0.053,0,0,0,12168,2021-01-15 19:05:08:693
0.158,-9.797,-0.053,0,0,0,12180,2021-01-15 19:05:08:705
0.158,-9.797,-0.053,0,0,0,12188,2021-01-15 19:05:08:713
0.158,-9.797,-0.053,0,0,0,12198,2021-01-15 19:05:08:723
0.158,-9.797,-0.053,0,0,0,12210,2021-01-15 19:05:08:735
0.158,-9.797,-0.053,0,0,0,12217,2021-01-15 19:05:08:742
0.158,-9.797,-0.053,0,0,0,12227,2021-01-15 19:05:08:752
0.156,-9.778,-0.036,0,0,0,12239,2021-01-15 19:05:08:764
0.156,-9.778,-0.036,0,0,0,12248,2021-01-15 19:05:08:773
0.156,-9.778,-0.036,0,0,0,12258,2021-01-15 19:05:08:783
0.156,-9.778,-0.036,0,0,0,12268,2021-01-15 19:05:08:793
0.156,-9.778,-0.036,0,0,0,12278,2021-01-15 19:05:08:803
0.156,-9.778,-0.036,0,-0.001,0,12288,2021-01-15 19:05:08:813
0.156,-9.778,-0.036,0,-0.001,0,12298,2021-01-15 19:05:08:823
0.158,-9.788,-0.036,0,-0.001,0,12308,2021-01-15 19:05:08:833
0.158,-9.788,-0.036,0,-0.001,0,12319,2021-01-15 19:05:08:844
0.158,-9.788,-0.036,0,-0.001,0,12328,2021-01-15 19:05:08:853
0.158,-9.788,-0.036,0,-0.001,0,12340,2021-01-15 19:05:08:865
0.158,-9.788,-0.036,0,-0.001,0,12347,2021-01-15 19:05:08:872
0.158,-9.788,-0.036,0,-0.001,0,12358,2021-01-15 19:05:08:883
0.172,-9.773,-0.045,0,-0.001,0,12368,2021-01-15 19:05:08:893
0.172,-9.773,-0.045,0,-0.001,0,12378,2021-01-15 19:05:08:903
0.172,-9.773,-0.045,0,-0.001,0,12390,2021-01-15 19:05:08:915
0.172,-9.773,-0.045,0,-0.001,0,12398,2021-01-15 19:05:08:923
0.172,-9.773,-0.045,0,0,0,12408,2021-01-15 19:05:08:933
0.172,-9.773,-0.045,0,0,0,12418,2021-01-15 19:05:08:943
0.168,-9.802,-0.048,0,0,0,12428,2021-01-15 19:05:08:953
0.168,-9.802,-0.048,0,0,0,12438,2021-01-15 19:05:08:963
0.168,-9.802,-0.048,0,0,0,12448,2021-01-15 19:05:08:973
0.168,-9.802,-0.048,0,0,0,12458,2021-01-15 19:05:08:983
0.168,-9.802,-0.048,0,0,0,12468,2021-01-15 19:05:08:993
0.168,-9.802,-0.048,0,0,0,12478,2021-01-15 19:05:09:003
0.175,-9.793,-0.045,0,0,0,12488,2021-01-15 19:05:09:013
0.175,-9.793,-0.045,0,0,0,12498,2021-01-15 19:05:09:023
0.175,-9.793,-0.045,0,0,0,12509,2021-01-15 19:05:09:034
0.175,-9.793,-0.045,0,-0.001,0,12518,2021-01-15 19:05:09:043
0.175,-9.793,-0.045,0,-0.001,0,12527,2021-01-15 19:05:09:052
0.175,-9.793,-0.045,0,-0.001,0,12538,2021-01-15 19:05:09:063
0.182,-9.79,-0.034,0,-0.001,0,12548,2021-01-15 19:05:09:073
0.182,-9.79,-0.034,0,-0.001,0,12557,2021-01-15 19:05:09:082
0.182,-9.79,-0.034,0,-0.001,0,12568,2021-01-15 19:05:09:093
0.182,-9.79,-0.034,0,-0.001,0,12579,2021-01-15 19:05:09:104
0.182,-9.79,-0.034,0,-0.001,0,12588,2021-01-15 19:05:09:113
0.182,-9.79,-0.034,0,-0.001,0,12598,2021-01-15 19:05:09:123
0.177,-9.797,-0.06,0,-0.001,0,12607,2021-01-15 19:05:09:132
0.177,-9.797,-0.06,0,-0.001,0,12618,2021-01-15 19:05:09:143
0.177,-9.797,-0.06,0,-0.001,0,12628,2021-01-15 19:05:09:153
0.177,-9.797,-0.06,0,-0.001,0,12638,2021-01-15 19:05:09:163
0.177,-9.797,-0.06,0,0,0,12648,2021-01-15 19:05:09:173
0.177,-9.797,-0.06,0,0,0,12659,2021-01-15 19:05:09:184
0.184,-9.802,-0.041,0,0,0,12669,2021-01-15 19:05:09:194
0.184,-9.802,-0.041,0,0,0,12679,2021-01-15 19:05:09:204
0.184,-9.802,-0.041,0,0,0,12691,2021-01-15 19:05:09:216
0.184,-9.802,-0.041,0,0,0,12697,2021-01-15 19:05:09:222
0.184,-9.802,-0.041,0,0,0,12708,2021-01-15 19:05:09:233
0.184,-9.802,-0.041,0,0,0,12718,2021-01-15 19:05:09:243
0.168,-9.781,-0.048,0,0,0,12728,2021-01-15 19:05:09:253
0.168,-9.781,-0.048,0,0,0,12738,2021-01-15 19:05:09:263
0.168,-9.781,-0.048,0,0,0,12749,2021-01-15 19:05:09:274
0.168,-9.781,-0.048,0,0,0,12758,2021-01-15 19:05:09:283
0.168,-9.781,-0.048,0,0,0,12768,2021-01-15 19:05:09:293
0.168,-9.781,-0.048,0,0,0,12779,2021-01-15 19:05:09:304
0.17,-9.773,-0.048,0,0,0,12789,2021-01-15 19:05:09:314
0.17,-9.773,-0.048,0,0,0,12797,2021-01-15 19:05:09:322
0.17,-9.773,-0.048,0,0,0,12809,2021-01-15 19:05:09:334
0.17,-9.773,-0.048,0,0,0,12819,2021-01-15 19:05:09:344
0.17,-9.773,-0.048,0,0,0,12827,2021-01-15 19:05:09:352
0.17,-9.773,-0.048,0,0,0,12839,2021-01-15 19:05:09:364
0.17,-9.773,-0.048,0,0,0,12849,2021-01-15 19:05:09:374
0.17,-9.773,-0.048,0,0,0,12858,2021-01-15 19:05:09:383
0.172,-9.781,-0.055,0,0,0,12869,2021-01-15 19:05:09:394
0.172,-9.781,-0.055,0,0,0,12879,2021-01-15 19:05:09:404
0.172,-9.781,-0.055,0,0,0,12888,2021-01-15 19:05:09:413
0.172,-9.781,-0.055,0,0,0,12898,2021-01-15 19:05:09:423
0.172,-9.781,-0.055,0,0,0,12908,2021-01-15 19:05:09:433
0.172,-9.781,-0.055,0,0,0,12918,2021-01-15 19:05:09:443
0.187,-9.795,-0.041,0,0,0,12928,2021-01-15 19:05:09:453
0.187,-9.795,-0.041,0,0,0,12939,2021-01-15 19:05:09:464
0.187,-9.795,-0.041,0,0,0,12948,2021-01-15 19:05:09:473
0.187,-9.795,-0.041,0,0,0,12958,2021-01-15 19:05:09:483
0.187,-9.795,-0.041,0,0,0,12969,2021-01-15 19:05:09:494
0.187,-9.795,-0.041,0,0,0,12978,2021-01-15 19:05:09:503
0.163,-9.793,-0.036,0,0,0,12989,2021-01-15 19:05:09:514
0.163,-9.793,-0.036,0,0,0,12998,2021-01-15 19:05:09:523
0.163,-9.793,-0.036,0,0,0,13007,2021-01-15 19:05:09:532
0.163,-9.793,-0.036,0,0,0,13018,2021-01-15 19:05:09:543
0.163,-9.793,-0.036,0,0,0,13028,2021-01-15 19:05:09:553
0.156,-9.778,-0.053,0,0,0,13044,2021-01-15 19:05:09:569
0.156,-9.778,-0.053,0,0,0,13048,2021-01-15 19:05:09:573
0.156,-9.778,-0.053,0,0,0,13058,2021-01-15 19:05:09:583
0.156,-9.778,-0.053,0,0,0,13067,2021-01-15 19:05:09:592
0.156,-9.778,-0.053,0,0,0,13078,2021-01-15 19:05:09:603
0.156,-9.778,-0.053,0,0,0,13088,2021-01-15 19:05:09:613
0.156,-9.778,-0.053,0,0,0,13098,2021-01-15 19:05:09:623
0.172,-9.788,-0.048,0,0,0,13111,2021-01-15 19:05:09:636
0.172,-9.788,-0.048,0,0,0,13119,2021-01-15 19:05:09:644
0.172,-9.788,-0.048,0,0,0,13128,2021-01-15 19:05:09:653
0.172,-9.788,-0.048,0,0,0,13145,2021-01-15 19:05:09:670
0.172,-9.788,-0.048,0,0,0,13148,2021-01-15 19:05:09:673
0.158,-9.809,-0.053,0,0,0,13158,2021-01-15 19:05:09:683
0.158,-9.809,-0.053,0,0,0,13167,2021-01-15 19:05:09:692
0.158,-9.809,-0.053,0,0,0,13181,2021-01-15 19:05:09:706
0.158,-9.809,-0.053,0,0,0,13192,2021-01-15 19:05:09:717
0.158,-9.809,-0.053,0,0,0,13198,2021-01-15 19:05:09:723
0.158,-9.809,-0.053,0,0,0,13208,2021-01-15 19:05:09:733
0.168,-9.793,-0.055,0,0,0,13218,2021-01-15 19:05:09:743
0.168,-9.793,-0.055,0,0,0,13228,2021-01-15 19:05:09:753
0.168,-9.793,-0.055,0,0,0,13238,2021-01-15 19:05:09:763
0.168,-9.793,-0.055,0,0,0,13247,2021-01-15 19:05:09:772
0.168,-9.793,-0.055,0,0,0,13259,2021-01-15 19:05:09:784
0.168,-9.793,-0.055,0,0,0,13268,2021-01-15 19:05:09:793
0.168,-9.793,-0.055,0,0,0,13278,2021-01-15 19:05:09:803
0.187,-9.79,-0.041,0,0,0,13290,2021-01-15 19:05:09:815
0.187,-9.79,-0.041,0,0,0,13298,2021-01-15 19:05:09:823
0.187,-9.79,-0.041,0,0,0,13311,2021-01-15 19:05:09:836
0.187,-9.79,-0.041,0,0,0,13318,2021-01-15 19:05:09:843
0.187,-9.79,-0.041,0,0,0,13328,2021-01-15 19:05:09:853
0.187,-9.79,-0.041,0,0,0,13338,2021-01-15 19:05:09:863
0.194,-9.793,-0.053,0,0,0,13348,2021-01-15 19:05:09:873
0.194,-9.793,-0.053,0,0,0,13359,2021-01-15 19:05:09:884
0.194,-9.793,-0.053,0,0,0,13368,2021-01-15 19:05:09:893
0.194,-9.793,-0.053,0,0,0,13378,2021-01-15 19:05:09:903
0.194,-9.793,-0.053,0,0,0,13388,2021-01-15 19:05:09:913
0.194,-9.793,-0.053,0,0,0,13398,2021-01-15 19:05:09:923
0.17,-9.79,-0.036,0,0,0,13408,2021-01-15 19:05:09:933
0.17,-9.79,-0.036,0,0,0,13418,2021-01-15 19:05:09:943
0.17,-9.79,-0.036,0,0,0,13428,2021-01-15 19:05:09:953
0.17,-9.79,-0.036,0,0,0,13438,2021-01-15 19:05:09:963
0.17,-9.79,-0.036,0,0,0,13448,2021-01-15 19:05:09:973
0.17,-9.79,-0.036,0,0,0,13458,2021-01-15 19:05:09:983
0.172,-9.79,-0.043,0,0,0,13468,2021-01-15 19:05:09:993
0.172,-9.79,-0.043,0,0,0,13478,2021-01-15 19:05:10:003
0.172,-9.79,-0.043,0,0,0,13488,2021-01-15 19:05:10:013
0.172,-9.79,-0.043,0,0,0,13514,2021-01-15 19:05:10:039
0.163,-9.797,-0.057,0,0,0,13519,2021-01-15 19:05:10:044
0.163,-9.797,-0.057,0,0,0,13519,2021-01-15 19:05:10:044
0.163,-9.797,-0.057,0,0,0,13528,2021-01-15 19:05:10:053
0.163,-9.797,-0.057,0,0,0,13538,2021-01-15 19:05:10:063
0.163,-9.797,-0.057,0,0,0,13548,2021-01-15 19:05:10:073
0.163,-9.797,-0.057,0,0,0,13558,2021-01-15 19:05:10:083
0.163,-9.797,-0.057,0,0,0,13568,2021-01-15 19:05:10:093
0.177,-9.793,-0.057,0,0,0,13578,2021-01-15 19:05:10:103
0.177,-9.793,-0.057,0,0,0,13588,2021-01-15 19:05:10:113
0.177,-9.793,-0.057,0,0,0,13598,2021-01-15 19:05:10:123
0.177,-9.793,-0.057,0,0,0,13608,2021-01-15 19:05:10:133
0.177,-9.793,-0.057,0,0,0,13619,2021-01-15 19:05:10:144
0.177,-9.793,-0.057,0,0,0,13628,2021-01-15 19:05:10:153
0.177,-9.793,-0.057,0,0,0,13638,2021-01-15 19:05:10:163
0.172,-9.795,-0.038,0,0,0,13648,2021-01-15 19:05:10:173
0.172,-9.795,-0.038,0,0,0,13667,2021-01-15 19:05:10:192
0.172,-9.795,-0.038,0,0,0,13669,2021-01-15 19:05:10:194
0.172,-9.795,-0.038,0,0,0,13678,2021-01-15 19:05:10:203
0.172,-9.795,-0.038,0,0,0,13687,2021-01-15 19:05:10:212
0.172,-9.795,-0.038,0,0,0,13698,2021-01-15 19:05:10:223
0.172,-9.795,-0.038,0,0,0,13708,2021-01-15 19:05:10:233
0.172,-9.795,-0.038,0,0,0,13719,2021-01-15 19:05:10:244
0.165,-9.8,-0.029,0,0,0,13729,2021-01-15 19:05:10:254
0.165,-9.8,-0.029,0,0,0,13738,2021-01-15 19:05:10:263
0.165,-9.8,-0.029,0,0,0,13749,2021-01-15 19:05:10:274
0.165,-9.8,-0.029,0,0,0,13758,2021-01-15 19:05:10:283
0.165,-9.8,-0.029,0,0,0,13767,2021-01-15 19:05:10:292
0.165,-9.8,-0.029,0,0,0,13778,2021-01-15 19:05:10:303
0.151,-9.785,-0.041,0,0,0,13788,2021-01-15 19:05:10:313
0.151,-9.785,-0.041,0,0,0,13798,2021-01-15 19:05:10:323
0.151,-9.785,-0.041,0,0,0,13808,2021-01-15 19:05:10:333
0.151,-9.785,-0.041,0,0,0,13818,2021-01-15 19:05:10:343
0.151,-9.785,-0.041,0,0,0,13828,2021-01-15 19:05:10:353
0.151,-9.785,-0.041,0,0,0,13838,2021-01-15 19:05:10:363
0.175,-9.795,-0.022,0,0,0,13848,2021-01-15 19:05:10:373
0.175,-9.795,-0.022,0,0,0,13859,2021-01-15 19:05:10:384
0.175,-9.795,-0.022,0,0,0,13868,2021-01-15 19:05:10:393
0.175,-9.795,-0.022,0,0,0,13878,2021-01-15 19:05:10:403
0.175,-9.795,-0.022,0,0,0,13888,2021-01-15 19:05:10:413
0.175,-9.795,-0.022,0,0,0,13898,2021-01-15 19:05:10:423
0.153,-9.793,-0.05,0,0,0,13908,2021-01-15 19:05:10:433
0.153,-9.793,-0.05,0,0,0,13918,2021-01-15 19:05:10:443
0.153,-9.793,-0.05,0,0,0,13929,2021-01-15 19:05:10:454
0.153,-9.793,-0.05,0,0,0,13938,2021-01-15 19:05:10:463
0.153,-9.793,-0.05,0,0,0,13949,2021-01-15 19:05:10:474
0.153,-9.793,-0.05,0,0,0,13957,2021-01-15 19:05:10:482
0.163,-9.797,-0.06,0,0,0,13968,2021-01-15 19:05:10:493
0.163,-9.797,-0.06,0,0,0,13978,2021-01-15 19:05:10:503
0.163,-9.797,-0.06,0,0,0,13988,2021-01-15 19:05:10:513
0.163,-9.797,-0.06,0,0,0,13998,2021-01-15 19:05:10:523
0.163,-9.797,-0.06,0,0,0,14008,2021-01-15 19:05:10:533
0.163,-9.797,-0.06,0,0,0,14018,2021-01-15 19:05:10:543
0.158,-9.795,-0.043,0,0,0,14027,2021-01-15 19:05:10:552
0.158,-9.795,-0.043,0,0,0,14038,2021-01-15 19:05:10:563
0.158,-9.795,-0.043,0,0,0,14047,2021-01-15 19:05:10:572
0.158,-9.795,-0.043,0,0,0,14058,2021-01-15 19:05:10:583
0.158,-9.795,-0.043,0,0,0,14068,2021-01-15 19:05:10:593
0.158,-9.795,-0.043,0,0,0,14078,2021-01-15 19:05:10:603
0.163,-9.8,-0.055,0,0,0,14094,2021-01-15 19:05:10:619
0.163,-9.8,-0.055,0,0,0,14098,2021-01-15 19:05:10:623
0.163,-9.8,-0.055,0,0,0,14108,2021-01-15 19:05:10:633
0.163,-9.8,-0.055,0,0,0,14118,2021-01-15 19:05:10:643
0.163,-9.8,-0.055,0,0,0,14130,2021-01-15 19:05:10:655
0.163,-9.8,-0.055,0,0,0,14138,2021-01-15 19:05:10:663
0.163,-9.797,-0.043,0,0,0,14148,2021-01-15 19:05:10:673
0.163,-9.797,-0.043,0,0,0,14158,2021-01-15 19:05:10:683
0.163,-9.797,-0.043,0,0,0,14168,2021-01-15 19:05:10:693
0.163,-9.797,-0.043,0,0,0,14179,2021-01-15 19:05:10:704
0.163,-9.797,-0.043,0,0,0,14188,2021-01-15 19:05:10:713
0.165,-9.797,-0.036,0,0,0,14206,2021-01-15 19:05:10:731
0.165,-9.797,-0.036,0,0,0,14209,2021-01-15 19:05:10:734
0.165,-9.797,-0.036,0,0,0,14218,2021-01-15 19:05:10:743
0.165,-9.797,-0.036,0,0,0,14228,2021-01-15 19:05:10:753
0.165,-9.797,-0.036,0,0,0,14238,2021-01-15 19:05:10:763
0.165,-9.797,-0.036,0,0,0,14247,2021-01-15 19:05:10:772
0.165,-9.797,-0.036,0,0,0,14257,2021-01-15 19:05:10:782
0.177,-9.802,-0.055,0,0,0,14268,2021-01-15 19:05:10:793
0.177,-9.802,-0.055,0,0,0,14278,2021-01-15 19:05:10:803
0.177,-9.802,-0.055,0,0,0,14288,2021-01-15 19:05:10:813
0.177,-9.802,-0.055,0,0,0,14298,2021-01-15 19:05:10:823
0.177,-9.802,-0.055,0,0,0,14313,2021-01-15 19:05:10:838
0.177,-9.802,-0.055,0,0,0,14318,2021-01-15 19:05:10:843
0.172,-9.776,-0.036,0,-0.001,0,14328,2021-01-15 19:05:10:853
0.172,-9.776,-0.036,0,-0.001,0,14337,2021-01-15 19:05:10:862
0.172,-9.776,-0.036,0,-0.001,0,14348,2021-01-15 19:05:10:873
0.172,-9.776,-0.036,0,-0.001,0,14358,2021-01-15 19:05:10:883
0.172,-9.776,-0.036,0,-0.001,0,14368,2021-01-15 19:05:10:893
0.172,-9.776,-0.036,0,-0.001,0,14379,2021-01-15 19:05:10:904
0.163,-9.783,-0.065,0,-0.001,0,14388,2021-01-15 19:05:10:913
0.163,-9.783,-0.065,0,-0.001,0,14398,2021-01-15 19:05:10:923
0.163,-9.783,-0.065,0,-0.001,0,14410,2021-01-15 19:05:10:935
0.163,-9.783,-0.065,0,-0.001,0,14419,2021-01-15 19:05:10:944
0.163,-9.783,-0.065,0,-0.001,0,14428,2021-01-15 19:05:10:953
0.163,-9.783,-0.065,0,-0.001,0,14438,2021-01-15 19:05:10:963
0.175,-9.783,-0.041,0,0,0,14448,2021-01-15 19:05:10:973
0.175,-9.783,-0.041,0,0,0,14458,2021-01-15 19:05:10:983
0.175,-9.783,-0.041,0,0,0,14467,2021-01-15 19:05:10:992
0.175,-9.783,-0.041,0,0,0,14478,2021-01-15 19:05:11:003
0.175,-9.783,-0.041,0,0,0,14488,2021-01-15 19:05:11:013
0.175,-9.783,-0.041,0,0,0,14498,2021-01-15 19:05:11:023
0.168,-9.783,-0.043,0,0,0,14508,2021-01-15 19:05:11:033
0.168,-9.783,-0.043,0,0,0,14523,2021-01-15 19:05:11:048
0.168,-9.783,-0.043,0,0,0,14527,2021-01-15 19:05:11:052
0.168,-9.783,-0.043,0,0,0,14538,2021-01-15 19:05:11:063
0.168,-9.783,-0.043,0,0,0,14548,2021-01-15 19:05:11:073
0.168,-9.783,-0.043,0,0,0,14559,2021-01-15 19:05:11:084
0.182,-9.785,-0.048,0,0,0,14568,2021-01-15 19:05:11:093
0.182,-9.785,-0.048,0,0,0,14578,2021-01-15 19:05:11:103
0.182,-9.785,-0.048,0,0,0,14588,2021-01-15 19:05:11:113
0.182,-9.785,-0.048,0,0,0,14597,2021-01-15 19:05:11:122
0.182,-9.785,-0.048,0,0,0,14608,2021-01-15 19:05:11:133
0.182,-9.785,-0.048,0,0,0,14617,2021-01-15 19:05:11:142
0.156,-9.783,-0.048,0,0,0,14631,2021-01-15 19:05:11:156
0.156,-9.783,-0.048,0,0,0,14638,2021-01-15 19:05:11:163
0.156,-9.783,-0.048,0,0,0,14648,2021-01-15 19:05:11:173
0.156,-9.783,-0.048,0,0,0,14658,2021-01-15 19:05:11:183
0.156,-9.783,-0.048,0,0,0,14668,2021-01-15 19:05:11:193
0.156,-9.783,-0.048,0,0,0,14679,2021-01-15 19:05:11:204
0.172,-9.8,-0.043,0,0.001,0,14688,2021-01-15 19:05:11:213
0.172,-9.8,-0.043,0,0.001,0,14698,2021-01-15 19:05:11:223
0.172,-9.8,-0.043,0,0.001,0,14708,2021-01-15 19:05:11:233
0.172,-9.8,-0.043,0,0.001,0,14718,2021-01-15 19:05:11:243
0.172,-9.8,-0.043,0,0.001,0,14728,2021-01-15 19:05:11:253
0.172,-9.8,-0.043,0,0.001,0,14738,2021-01-15 19:05:11:263
0.17,-9.802,-0.053,0,0.001,0,14748,2021-01-15 19:05:11:273
0.17,-9.802,-0.053,0,0.001,0,14758,2021-01-15 19:05:11:283
0.17,-9.802,-0.053,0,0.001,0,14768,2021-01-15 19:05:11:293
0.17,-9.802,-0.053,0,0.001,0,14780,2021-01-15 19:05:11:305
0.17,-9.802,-0.053,0,0.001,0,14788,2021-01-15 19:05:11:313
0.17,-9.802,-0.053,0,0.001,0,14799,2021-01-15 19:05:11:324
0.177,-9.788,-0.053,0,0,0,14816,2021-01-15 19:05:11:341
0.177,-9.788,-0.053,0,0,0,14818,2021-01-15 19:05:11:343
0.177,-9.788,-0.053,0,0,0,14827,2021-01-15 19:05:11:352
0.177,-9.788,-0.053,0,0,0,14838,2021-01-15 19:05:11:363
0.177,-9.788,-0.053,0,0,0,14847,2021-01-15 19:05:11:372
0.177,-9.788,-0.053,0,0,0,14858,2021-01-15 19:05:11:383
0.16,-9.793,-0.05,0,0,0,14867,2021-01-15 19:05:11:392
0.16,-9.793,-0.05,0,0,0,14878,2021-01-15 19:05:11:403
0.16,-9.793,-0.05,0,0,0,14888,2021-01-15 19:05:11:413
0.16,-9.793,-0.05,0,0,0,14898,2021-01-15 19:05:11:423
0.16,-9.793,-0.05,0,0,0,14907,2021-01-15 19:05:11:432
0.16,-9.793,-0.05,0,0,0,14918,2021-01-15 19:05:11:443
0.168,-9.793,-0.045,0,-0.001,0,14928,2021-01-15 19:05:11:453
0.168,-9.793,-0.045,0,-0.001,0,14938,2021-01-15 19:05:11:463
0.168,-9.793,-0.045,0,-0.001,0,14948,2021-01-15 19:05:11:473
0.168,-9.793,-0.045,0,-0.001,0,14960,2021-01-15 19:05:11:485
0.168,-9.793,-0.045,0,-0.001,0,14969,2021-01-15 19:05:11:494
0.168,-9.793,-0.045,0,-0.001,0,14978,2021-01-15 19:05:11:503
0.163,-9.805,-0.057,0,-0.001,0,14988,2021-01-15 19:05:11:513
0.163,-9.805,-0.057,0,-0.001,0,14998,2021-01-15 19:05:11:523
0.163,-9.805,-0.057,0,-0.001,0,15008,2021-01-15 19:05:11:533
0.163,-9.805,-0.057,0,-0.001,0,15019,2021-01-15 19:05:11:544
0.163,-9.805,-0.057,0,-0.001,0,15029,2021-01-15 19:05:11:554
0.163,-9.805,-0.057,0,-0.001,0,15038,2021-01-15 19:05:11:563
0.168,-9.773,-0.053,0,-0.001,0,15048,2021-01-15 19:05:11:573
0.168,-9.773,-0.053,0,-0.001,0,15058,2021-01-15 19:05:11:583
0.168,-9.773,-0.053,0,-0.001,0,15068,2021-01-15 19:05:11:593
0.168,-9.773,-0.053,0,-0.001,0,15079,2021-01-15 19:05:11:604
0.168,-9.773,-0.053,0,-0.001,0,15088,2021-01-15 19:05:11:613
0.168,-9.773,-0.053,0,-0.001,0,15098,2021-01-15 19:05:11:623
0.163,-9.783,-0.041,0,-0.001,0,15109,2021-01-15 19:05:11:634
0.163,-9.783,-0.041,0,-0.001,0,15118,2021-01-15 19:05:11:643
0.163,-9.783,-0.041,0,-0.001,0,15128,2021-01-15 19:05:11:653
0.163,-9.783,-0.041,0,-0.001,0,15138,2021-01-15 19:05:11:663
0.163,-9.783,-0.041,0,-0.001,0,15148,2021-01-15 19:05:11:673
0.163,-9.783,-0.041,0,-0.001,0,15158,2021-01-15 19:05:11:683
0.172,-9.783,-0.043,0,0,0,15168,2021-01-15 19:05:11:693
0.172,-9.783,-0.043,0,0,0,15179,2021-01-15 19:05:11:704
0.172,-9.783,-0.043,0,0,0,15188,2021-01-15 19:05:11:713
0.172,-9.783,-0.043,0,0,0,15198,2021-01-15 19:05:11:723
0.172,-9.783,-0.043,0,0,0,15208,2021-01-15 19:05:11:733
0.172,-9.783,-0.043,0,0,0,15218,2021-01-15 19:05:11:743
0.163,-9.788,-0.067,0,0,0,15228,2021-01-15 19:05:11:753
0.163,-9.788,-0.067,0,0,0,15238,2021-01-15 19:05:11:763
0.163,-9.788,-0.067,0,0,0,15248,2021-01-15 19:05:11:773
0.163,-9.788,-0.067,0,0,0,15258,2021-01-15 19:05:11:783
0.163,-9.788,-0.067,0,0,0,15268,2021-01-15 19:05:11:793
0.163,-9.788,-0.067,0,0,0,15279,2021-01-15 19:05:11:804
0.146,-9.79,-0.026,0,0,0,15288,2021-01-15 19:05:11:813
0.146,-9.79,-0.026,0,0,0,15298,2021-01-15 19:05:11:823
0.146,-9.79,-0.026,0,0,0,15308,2021-01-15 19:05:11:833
0.146,-9.79,-0.026,0,0,0,15318,2021-01-15 19:05:11:843
0.146,-9.79,-0.026,0,0,0,15327,2021-01-15 19:05:11:852
0.146,-9.79,-0.026,0,0,0,15338,2021-01-15 19:05:11:863
0.163,-9.783,-0.05,0,0,0,15348,2021-01-15 19:05:11:873
0.163,-9.783,-0.05,0,0,0,15358,2021-01-15 19:05:11:883
0.163,-9.783,-0.05,0,0,0,15368,2021-01-15 19:05:11:893
0.163,-9.783,-0.05,0,0,0,15379,2021-01-15 19:05:11:904
0.163,-9.783,-0.05,0,0,0,15389,2021-01-15 19:05:11:914
0.163,-9.783,-0.05,0,0,0,15399,2021-01-15 19:05:11:924
0.168,-9.785,-0.048,0,0,0,15407,2021-01-15 19:05:11:932
0.168,-9.785,-0.048,0,0,0,15418,2021-01-15 19:05:11:943
0.168,-9.785,-0.048,0,0,0,15428,2021-01-15 19:05:11:953
0.168,-9.785,-0.048,0,0,0,15438,2021-01-15 19:05:11:963
0.168,-9.785,-0.048,0,0,0,15449,2021-01-15 19:05:11:974
0.168,-9.785,-0.048,0,0,0,15458,2021-01-15 19:05:11:983
0.177,-9.776,-0.055,0,0,0,15469,2021-01-15 19:05:11:994
0.177,-9.776,-0.055,0,0,0,15479,2021-01-15 19:05:12:004
0.177,-9.776,-0.055,0,0,0,15488,2021-01-15 19:05:12:013
0.177,-9.776,-0.055,0,0,0,15498,2021-01-15 19:05:12:023
0.177,-9.776,-0.055,0,0,0,15508,2021-01-15 19:05:12:033
0.177,-9.776,-0.055,0,0,0,15518,2021-01-15 19:05:12:043
0.168,-9.788,-0.043,0,0,0,15528,2021-01-15 19:05:12:053
0.168,-9.788,-0.043,0,0,0,15539,2021-01-15 19:05:12:064
0.168,-9.788,-0.043,0,0,0,15548,2021-01-15 19:05:12:073
0.168,-9.788,-0.043,0,0,0,15559,2021-01-15 19:05:12:084
0.168,-9.788,-0.043,0,0,0,15568,2021-01-15 19:05:12:093
0.168,-9.788,-0.043,0,0,0,15577,2021-01-15 19:05:12:102
0.17,-9.795,-0.043,0,0,0,15588,2021-01-15 19:05:12:113
0.17,-9.795,-0.043,0,0,0,15598,2021-01-15 19:05:12:123
0.17,-9.795,-0.043,0,0,0,15608,2021-01-15 19:05:12:133
0.17,-9.795,-0.043,0,0,0,15618,2021-01-15 19:05:12:143
0.17,-9.795,-0.043,0,0,0,15629,2021-01-15 19:05:12:154
0.17,-9.795,-0.043,0,0,0,15638,2021-01-15 19:05:12:163
0.17,-9.793,-0.034,0,0,0,15648,2021-01-15 19:05:12:173
0.17,-9.793,-0.034,0,0,0,15658,2021-01-15 19:05:12:183
0.17,-9.793,-0.034,0,0,0,15668,2021-01-15 19:05:12:193
0.17,-9.793,-0.034,0,0,0,15682,2021-01-15 19:05:12:207
0.17,-9.793,-0.034,0,0,0,15688,2021-01-15 19:05:12:213
0.17,-9.793,-0.034,0,0,0,15698,2021-01-15 19:05:12:223
0.177,-9.783,-0.034,0,0,0,15708,2021-01-15 19:05:12:233
0.177,-9.783,-0.034,0,0,0,15718,2021-01-15 19:05:12:243
0.177,-9.783,-0.034,0,0,0,15728,2021-01-15 19:05:12:253
0.177,-9.783,-0.034,0,0,0,15738,2021-01-15 19:05:12:263
0.177,-9.783,-0.034,0,0,0,15748,2021-01-15 19:05:12:273
0.177,-9.783,-0.034,0,0,0,15758,2021-01-15 19:05:12:283
0.158,-9.8,-0.024,0,0,0,15768,2021-01-15 19:05:12:293
0.158,-9.8,-0.024,0,0,0,15778,2021-01-15 19:05:12:303
0.158,-9.8,-0.024,0,0,0,15788,2021-01-15 19:05:12:313
0.158,-9.8,-0.024,0,0,0,15801,2021-01-15 19:05:12:326
0.158,-9.8,-0.024,0,0,0,15818,2021-01-15 19:05:12:343
0.158,-9.8,-0.024,0,0,0,15819,2021-01-15 19:05:12:344
0.18,-9.79,-0.038,0,0,0,15828,2021-01-15 19:05:12:353
0.18,-9.79,-0.038,0,0,0,15838,2021-01-15 19:05:12:363
0.18,-9.79,-0.038,0,0,0,15848,2021-01-15 19:05:12:373
0.18,-9.79,-0.038,0,0,0,15858,2021-01-15 19:05:12:383
0.18,-9.79,-0.038,0,0,0,15868,2021-01-15 19:05:12:393
0.18,-9.79,-0.038,0,0,0,15878,2021-01-15 19:05:12:403
0.18,-9.785,-0.048,0,0,0,15888,2021-01-15 19:05:12:413
0.18,-9.785,-0.048,0,0,0,15898,2021-01-15 19:05:12:423
0.18,-9.785,-0.048,0,0,0,15908,2021-01-15 19:05:12:433
0.18,-9.785,-0.048,0,0,0,15920,2021-01-15 19:05:12:445
0.18,-9.785,-0.048,0,0,0,15930,2021-01-15 19:05:12:455
0.18,-9.785,-0.048,0,0,0,15938,2021-01-15 19:05:12:463
0.153,-9.793,-0.05,0,0,0,15948,2021-01-15 19:05:12:473
0.153,-9.793,-0.05,0,0,0,15958,2021-01-15 19:05:12:483
0.153,-9.793,-0.05,0,0,0,15969,2021-01-15 19:05:12:494
0.153,-9.793,-0.05,0,0,0,15978,2021-01-15 19:05:12:503
0.153,-9.793,-0.05,0,0,0,15988,2021-01-15 19:05:12:513
0.153,-9.793,-0.05,0,0,0,15998,2021-01-15 19:05:12:523
0.175,-9.807,-0.038,0,0,0,16008,2021-01-15 19:05:12:533
0.175,-9.807,-0.038,0,0,0,16018,2021-01-15 19:05:12:543
0.175,-9.807,-0.038,0,0,0,16028,2021-01-15 19:05:12:553
0.175,-9.807,-0.038,0,0,0,16038,2021-01-15 19:05:12:563
0.175,-9.807,-0.038,0,0,0,16048,2021-01-15 19:05:12:573
0.175,-9.807,-0.038,0,0,0,16059,2021-01-15 19:05:12:584
0.168,-9.79,-0.057,0,0,0,16069,2021-01-15 19:05:12:594
0.168,-9.79,-0.057,0,0,0,16078,2021-01-15 19:05:12:603
0.168,-9.79,-0.057,0,0,0,16093,2021-01-15 19:05:12:618
0.168,-9.79,-0.057,0,0,0,16098,2021-01-15 19:05:12:623
0.168,-9.79,-0.057,0,0,0,16108,2021-01-15 19:05:12:633
0.168,-9.79,-0.057,0,0,0,16118,2021-01-15 19:05:12:643
0.175,-9.785,-0.048,0,0,0,16131,2021-01-15 19:05:12:656
0.175,-9.785,-0.048,0,0,0,16140,2021-01-15 19:05:12:665
0.175,-9.785,-0.048,0,0,0,16147,2021-01-15 19:05:12:672
0.175,-9.785,-0.048,0,0,0,16158,2021-01-15 19:05:12:683
0.175,-9.785,-0.048,0,0,0,16168,2021-01-15 19:05:12:693
0.175,-9.785,-0.048,0,0,0,16178,2021-01-15 19:05:12:703
0.165,-9.773,-0.045,0,0,0,16188,2021-01-15 19:05:12:713
0.165,-9.773,-0.045,0,0,0,16199,2021-01-15 19:05:12:724
0.165,-9.773,-0.045,0,0,0,16208,2021-01-15 19:05:12:733
0.165,-9.773,-0.045,0,0,0,16220,2021-01-15 19:05:12:745
0.165,-9.773,-0.045,0,0,0,16234,2021-01-15 19:05:12:759
0.165,-9.773,-0.045,0,0,0,16237,2021-01-15 19:05:12:762
0.168,-9.807,-0.043,0,0,0,16248,2021-01-15 19:05:12:773
0.168,-9.807,-0.043,0,0,0,16259,2021-01-15 19:05:12:784
0.168,-9.807,-0.043,0,0,0,16268,2021-01-15 19:05:12:793
0.168,-9.807,-0.043,0,0,0,16278,2021-01-15 19:05:12:803
0.168,-9.807,-0.043,0,0,0,16288,2021-01-15 19:05:12:813
0.168,-9.807,-0.043,0,0,0,16298,2021-01-15 19:05:12:823
0.158,-9.785,-0.031,0,0,0,16308,2021-01-15 19:05:12:833
0.158,-9.785,-0.031,0,0,0,16325,2021-01-15 19:05:12:850
0.158,-9.785,-0.031,0,0,0,16329,2021-01-15 19:05:12:854
0.158,-9.785,-0.031,0,0,0,16338,2021-01-15 19:05:12:863
0.158,-9.785,-0.031,0,0,0,16352,2021-01-15 19:05:12:877
0.158,-9.785,-0.031,0,0,0,16358,2021-01-15 19:05:12:883
0.158,-9.819,-0.055,0,0,0,16368,2021-01-15 19:05:12:893
0.158,-9.819,-0.055,0,0,0,16378,2021-01-15 19:05:12:903
0.158,-9.819,-0.055,0,0,0,16388,2021-01-15 19:05:12:913
0.158,-9.819,-0.055,0,0,0,16400,2021-01-15 19:05:12:925
0.158,-9.819,-0.055,0,0,0,16408,2021-01-15 19:05:12:933
0.158,-9.819,-0.055,0,0,0,16420,2021-01-15 19:05:12:945
0.172,-9.793,-0.05,0,0,0,16428,2021-01-15 19:05:12:953
0.172,-9.793,-0.05,0,0,0,16438,2021-01-15 19:05:12:963
0.172,-9.793,-0.05,0,0,0,16448,2021-01-15 19:05:12:973
0.172,-9.793,-0.05,0,0,0,16459,2021-01-15 19:05:12:984
0.172,-9.793,-0.05,0,0,0,16468,2021-01-15 19:05:12:993
0.172,-9.793,-0.05,0,0,0,16478,2021-01-15 19:05:13:003
0.168,-9.783,-0.05,0,0,0,16487,2021-01-15 19:05:13:012
0.168,-9.783,-0.05,0,0,0,16498,2021-01-15 19:05:13:023
0.168,-9.783,-0.05,0,0,0,16508,2021-01-15 19:05:13:033
0.168,-9.783,-0.05,0,0,0,16518,2021-01-15 19:05:13:043
0.168,-9.783,-0.05,0,0,0,16528,2021-01-15 19:05:13:053
0.168,-9.783,-0.05,0,0,0,16538,2021-01-15 19:05:13:063
0.18,-9.79,-0.038,0,0,0,16548,2021-01-15 19:05:13:073
0.18,-9.79,-0.038,0,0,0,16558,2021-01-15 19:05:13:083
0.18,-9.79,-0.038,0,0,0,16568,2021-01-15 19:05:13:093
0.18,-9.79,-0.038,0,0,0,16578,2021-01-15 19:05:13:103
0.18,-9.79,-0.038,0,0,0,16588,2021-01-15 19:05:13:113
0.18,-9.79,-0.038,0,0,0,16598,2021-01-15 19:05:13:123
0.177,-9.79,-0.055,0,0.001,0,16608,2021-01-15 19:05:13:133
0.177,-9.79,-0.055,0,0.001,0,16622,2021-01-15 19:05:13:147
0.177,-9.79,-0.055,0,0.001,0,16628,2021-01-15 19:05:13:153
0.177,-9.79,-0.055,0,0.001,0,16637,2021-01-15 19:05:13:162
0.177,-9.79,-0.055,0,0.001,0,16649,2021-01-15 19:05:13:174
0.177,-9.79,-0.055,0,0.001,0,16658,2021-01-15 19:05:13:183
0.165,-9.773,-0.041,0,0.001,0,16668,2021-01-15 19:05:13:193
0.165,-9.773,-0.041,0,0.001,0,16678,2021-01-15 19:05:13:203
0.165,-9.773,-0.041,0,0.001,0,16688,2021-01-15 19:05:13:213
0.165,-9.773,-0.041,0,0.001,0,16699,2021-01-15 19:05:13:224
0.165,-9.773,-0.041,0,0.001,0,16708,2021-01-15 19:05:13:233
0.165,-9.773,-0.041,0,0.001,0,16718,2021-01-15 19:05:13:243
0.18,-9.8,-0.041,0,0.001,0,16728,2021-01-15 19:05:13:253
0.18,-9.8,-0.041,0,0.001,0,16738,2021-01-15 19:05:13:263
0.18,-9.8,-0.041,0,0.001,0,16748,2021-01-15 19:05:13:273
0.18,-9.8,-0.041,0,0.001,0,16758,2021-01-15 19:05:13:283
0.18,-9.8,-0.041,0,0.001,0,16769,2021-01-15 19:05:13:294
0.18,-9.8,-0.041,0,0.001,0,16778,2021-01-15 19:05:13:303
0.165,-9.802,-0.062,0,0.001,0,16788,2021-01-15 19:05:13:313
0.165,-9.802,-0.062,0,0.001,0,16798,2021-01-15 19:05:13:323
0.165,-9.802,-0.062,0,0.001,0,16820,2021-01-15 19:05:13:345
0.165,-9.802,-0.062,0,0.001,0,16821,2021-01-15 19:05:13:346
0.165,-9.802,-0.062,0,0.001,0,16838,2021-01-15 19:05:13:363
0.165,-9.802,-0.062,0,0.001,0,16839,2021-01-15 19:05:13:364
0.165,-9.802,-0.062,0,0.001,0,16848,2021-01-15 19:05:13:373
0.165,-9.802,-0.062,0,0.001,0,16858,2021-01-15 19:05:13:383
0.168,-9.802,-0.048,0,0,0,16868,2021-01-15 19:05:13:393
0.168,-9.802,-0.048,0,0,0,16878,2021-01-15 19:05:13:403
0.168,-9.802,-0.048,0,0,0,16888,2021-01-15 19:05:13:413
0.168,-9.802,-0.048,0,0,0,16908,2021-01-15 19:05:13:433
0.168,-9.802,-0.048,0,0,0,16909,2021-01-15 19:05:13:434
0.153,-9.776,-0.038,0,0,0,16922,2021-01-15 19:05:13:447
0.153,-9.776,-0.038,0,0,0,16930,2021-01-15 19:05:13:455
0.153,-9.776,-0.038,0,0,0,16937,2021-01-15 19:05:13:462
0.153,-9.776,-0.038,0,0,0,16950,2021-01-15 19:05:13:475
0.153,-9.776,-0.038,0,0,0,16958,2021-01-15 19:05:13:483
0.153,-9.776,-0.038,0,0.001,0,16968,2021-01-15 19:05:13:493
0.153,-9.776,-0.038,0,0.001,0,16979,2021-01-15 19:05:13:504
0.177,-9.8,-0.057,0,0.001,0,16988,2021-01-15 19:05:13:513
0.177,-9.8,-0.057,0,0.001,0,16998,2021-01-15 19:05:13:523
0.177,-9.8,-0.057,0,0.001,0,17008,2021-01-15 19:05:13:533
0.177,-9.8,-0.057,0,0.001,0,17018,2021-01-15 19:05:13:543
0.177,-9.8,-0.057,0,0.001,0,17028,2021-01-15 19:05:13:553
0.177,-9.8,-0.057,0,0.001,0,17038,2021-01-15 19:05:13:563
0.187,-9.783,-0.065,0,0.001,0,17049,2021-01-15 19:05:13:574
0.187,-9.783,-0.065,0,0.001,0,17058,2021-01-15 19:05:13:583
0.187,-9.783,-0.065,0,0.001,0,17069,2021-01-15 19:05:13:594
0.187,-9.783,-0.065,0,0.001,0,17078,2021-01-15 19:05:13:603
0.187,-9.783,-0.065,0,0,0,17088,2021-01-15 19:05:13:613
0.187,-9.783,-0.065,0,0,0,17098,2021-01-15 19:05:13:623
0.187,-9.783,-0.065,0,0,0,17107,2021-01-15 19:05:13:632
0.177,-9.807,-0.062,0,0,0,17119,2021-01-15 19:05:13:644
0.177,-9.807,-0.062,0,0,0,17128,2021-01-15 19:05:13:653
0.177,-9.807,-0.062,0,0,0,17138,2021-01-15 19:05:13:663
0.177,-9.807,-0.062,0,0,0,17150,2021-01-15 19:05:13:675
0.177,-9.807,-0.062,0,0,0,17158,2021-01-15 19:05:13:683
0.177,-9.807,-0.062,0,0,0,17168,2021-01-15 19:05:13:693
0.158,-9.795,-0.038,0,0,0,17178,2021-01-15 19:05:13:703
0.158,-9.795,-0.038,0,0,0,17188,2021-01-15 19:05:13:713
0.158,-9.795,-0.038,0,0,0,17198,2021-01-15 19:05:13:723
0.158,-9.795,-0.038,0,0,0,17208,2021-01-15 19:05:13:733
0.158,-9.795,-0.038,0,0,0,17218,2021-01-15 19:05:13:743
0.158,-9.795,-0.038,0,0,0,17228,2021-01-15 19:05:13:753
0.158,-9.795,-0.038,0,0,0,17239,2021-01-15 19:05:13:764
0.182,-9.785,-0.055,0,0,0,17248,2021-01-15 19:05:13:773
0.182,-9.785,-0.055,0,0,0,17259,2021-01-15 19:05:13:784
0.182,-9.785,-0.055,0,0,0,17272,2021-01-15 19:05:13:797
0.182,-9.785,-0.055,0,0,0,17278,2021-01-15 19:05:13:803
0.182,-9.785,-0.055,0,0,0,17288,2021-01-15 19:05:13:813
0.182,-9.785,-0.055,0,0,0,17298,2021-01-15 19:05:13:823
0.168,-9.79,-0.045,0,0,0,17308,2021-01-15 19:05:13:833
0.168,-9.79,-0.045,0,0,0,17318,2021-01-15 19:05:13:843
0.168,-9.79,-0.045,0,-0.001,0,17328,2021-01-15 19:05:13:853
0.168,-9.79,-0.045,0,-0.001,0,17338,2021-01-15 19:05:13:863
0.168,-9.79,-0.045,0,-0.001,0,17348,2021-01-15 19:05:13:873
0.17,-9.788,-0.055,0,-0.001,0,17358,2021-01-15 19:05:13:883
0.17,-9.788,-0.055,0,-0.001,0,17368,2021-01-15 19:05:13:893
0.17,-9.788,-0.055,0,-0.001,0,17378,2021-01-15 19:05:13:903
0.17,-9.788,-0.055,0,-0.001,0,17388,2021-01-15 19:05:13:913
0.17,-9.788,-0.055,0,-0.001,0,17398,2021-01-15 19:05:13:923
0.17,-9.788,-0.055,0,-0.001,0,17408,2021-01-15 19:05:13:933
0.17,-9.788,-0.055,0,-0.001,0,17418,2021-01-15 19:05:13:943
0.177,-9.79,-0.043,0,-0.001,0,17428,2021-01-15 19:05:13:953
0.177,-9.79,-0.043,0,-0.001,0,17438,2021-01-15 19:05:13:963
0.177,-9.79,-0.043,0,0,0,17448,2021-01-15 19:05:13:973
0.177,-9.79,-0.043,0,0,0,17457,2021-01-15 19:05:13:982
0.177,-9.79,-0.043,0,0,0,17468,2021-01-15 19:05:13:993
0.177,-9.79,-0.043,0,0,0,17478,2021-01-15 19:05:14:003
0.163,-9.805,-0.048,0,0,0,17488,2021-01-15 19:05:14:013
0.163,-9.805,-0.048,0,0,0,17498,2021-01-15 19:05:14:023
0.163,-9.805,-0.048,0,0,0,17508,2021-01-15 19:05:14:033
0.163,-9.805,-0.048,0,0,0,17518,2021-01-15 19:05:14:043
0.163,-9.805,-0.048,0,0,0,17529,2021-01-15 19:05:14:054
0.163,-9.805,-0.048,0,0,0,17538,2021-01-15 19:05:14:063
0.192,-9.776,-0.045,0,0,0,17548,2021-01-15 19:05:14:073
0.192,-9.776,-0.045,0,0,0,17559,2021-01-15 19:05:14:084
0.192,-9.776,-0.045,0,0,0,17569,2021-01-15 19:05:14:094
0.192,-9.776,-0.045,0,0,0,17579,2021-01-15 19:05:14:104
0.192,-9.776,-0.045,0,0,0,17588,2021-01-15 19:05:14:113
0.192,-9.776,-0.045,0,0,0,17598,2021-01-15 19:05:14:123
0.163,-9.797,-0.055,0,0,0,17608,2021-01-15 19:05:14:133
0.163,-9.797,-0.055,0,0,0,17619,2021-01-15 19:05:14:144
0.163,-9.797,-0.055,0,0,0,17628,2021-01-15 19:05:14:153
0.163,-9.797,-0.055,0,0,0,17638,2021-01-15 19:05:14:163
0.163,-9.797,-0.055,0,0,0,17648,2021-01-15 19:05:14:173
0.163,-9.797,-0.055,0,0,0,17658,2021-01-15 19:05:14:183
0.182,-9.781,-0.041,0,0,0,17668,2021-01-15 19:05:14:193
0.182,-9.781,-0.041,0,0,0,17678,2021-01-15 19:05:14:203
0.182,-9.781,-0.041,0,0,0,17694,2021-01-15 19:05:14:219
0.182,-9.781,-0.041,0,0,0,17698,2021-01-15 19:05:14:223
0.182,-9.781,-0.041,0,0,0,17708,2021-01-15 19:05:14:233
0.17,-9.79,-0.041,0,0,0,17722,2021-01-15 19:05:14:247
0.17,-9.79,-0.041,0,0,0,17728,2021-01-15 19:05:14:253
0.17,-9.79,-0.041,0,0,0,17738,2021-01-15 19:05:14:263
0.17,-9.79,-0.041,0,0,0,17751,2021-01-15 19:05:14:276
0.17,-9.79,-0.041,0,0,0,17758,2021-01-15 19:05:14:283
0.17,-9.79,-0.041,0,0,0,17769,2021-01-15 19:05:14:294
0.17,-9.79,-0.041,0,0,0,17778,2021-01-15 19:05:14:303
0.148,-9.807,-0.045,0,0,0,17788,2021-01-15 19:05:14:313
0.148,-9.807,-0.045,0,0,0,17798,2021-01-15 19:05:14:323
0.148,-9.807,-0.045,0,0,0,17811,2021-01-15 19:05:14:336
0.148,-9.807,-0.045,0,0,0,17818,2021-01-15 19:05:14:343
0.148,-9.807,-0.045,0,0,0,17828,2021-01-15 19:05:14:353
0.148,-9.807,-0.045,0,0,0,17839,2021-01-15 19:05:14:364
0.175,-9.785,-0.062,0,0,0,17848,2021-01-15 19:05:14:373
0.175,-9.785,-0.062,0,0,0,17858,2021-01-15 19:05:14:383
0.175,-9.785,-0.062,0,0,0,17870,2021-01-15 19:05:14:395
0.175,-9.785,-0.062,0,0,0,17878,2021-01-15 19:05:14:403
0.175,-9.785,-0.062,0,0,0,17891,2021-01-15 19:05:14:416
0.175,-9.785,-0.062,0,0,0,17898,2021-01-15 19:05:14:423
0.163,-9.807,-0.062,0,0,0,17908,2021-01-15 19:05:14:433
0.163,-9.807,-0.062,0,0,0,17920,2021-01-15 19:05:14:445
0.163,-9.807,-0.062,0,0,0,17929,2021-01-15 19:05:14:454
0.163,-9.807,-0.062,0,0,0,17941,2021-01-15 19:05:14:466
0.163,-9.807,-0.062,0,0,0,17948,2021-01-15 19:05:14:473
0.163,-9.807,-0.062,0,0,0,17958,2021-01-15 19:05:14:483
0.165,-9.809,-0.05,0,0,0,17969,2021-01-15 19:05:14:494
0.165,-9.809,-0.05,0,0,0,17978,2021-01-15 19:05:14:503
0.165,-9.809,-0.05,0,0,0,17988,2021-01-15 19:05:14:513
0.165,-9.809,-0.05,0,0,0,17998,2021-01-15 19:05:14:523
0.165,-9.809,-0.05,0,0,0,18008,2021-01-15 19:05:14:533
0.158,-9.79,-0.038,0,0,0,18021,2021-01-15 19:05:14:546
0.158,-9.79,-0.038,0,0,0,18028,2021-01-15 19:05:14:553
0.158,-9.79,-0.038,0,0,0,18037,2021-01-15 19:05:14:562
0.158,-9.79,-0.038,0,0,0,18048,2021-01-15 19:05:14:573
0.158,-9.79,-0.038,0,0,0,18058,2021-01-15 19:05:14:583
0.158,-9.79,-0.038,0,0,0,18074,2021-01-15 19:05:14:599
0.158,-9.79,-0.038,0,0,0,18078,2021-01-15 19:05:14:603
0.172,-9.795,-0.065,0,0,0,18092,2021-01-15 19:05:14:617
0.172,-9.795,-0.065,0,0,0,18098,2021-01-15 19:05:14:623
0.172,-9.795,-0.065,0,0,0,18108,2021-01-15 19:05:14:633
0.172,-9.795,-0.065,0,0,0,18119,2021-01-15 19:05:14:644
0.172,-9.795,-0.065,0,0,0,18128,2021-01-15 19:05:14:653
0.158,-9.776,-0.045,0,0,0,18138,2021-01-15 19:05:14:663
0.158,-9.776,-0.045,0,0,0,18148,2021-01-15 19:05:14:673
0.158,-9.776,-0.045,0,0,0,18160,2021-01-15 19:05:14:685
0.158,-9.776,-0.045,0,0,0,18168,2021-01-15 19:05:14:693
0.158,-9.776,-0.045,0,0,0,18177,2021-01-15 19:05:14:702
0.158,-9.776,-0.045,0,0,0,18188,2021-01-15 19:05:14:713
0.158,-9.776,-0.045,0,0,0,18198,2021-01-15 19:05:14:723
0.187,-9.795,-0.053,0,0,0,18207,2021-01-15 19:05:14:732
0.187,-9.795,-0.053,0,0,0,18220,2021-01-15 19:05:14:745
0.187,-9.795,-0.053,0,0,0,18227,2021-01-15 19:05:14:752
0.187,-9.795,-0.053,0,0,0,18238,2021-01-15 19:05:14:763
0.187,-9.795,-0.053,0,0,0,18249,2021-01-15 19:05:14:774
0.172,-9.797,-0.048,0,0,0,18259,2021-01-15 19:05:14:784
0.172,-9.797,-0.048,0,0,0,18269,2021-01-15 19:05:14:794
0.172,-9.797,-0.048,0,0,0,18282,2021-01-15 19:05:14:807
0.172,-9.797,-0.048,0,0,0,18293,2021-01-15 19:05:14:818
0.172,-9.797,-0.048,0,0,0,18300,2021-01-15 19:05:14:825
0.172,-9.797,-0.048,0,0,0,18307,2021-01-15 19:05:14:832
0.172,-9.797,-0.048,0,0,0,18318,2021-01-15 19:05:14:843
0.144,-9.79,-0.041,0,0,0,18327,2021-01-15 19:05:14:852
0.144,-9.79,-0.041,0,0,0,18338,2021-01-15 19:05:14:863
0.144,-9.79,-0.041,0,0,0,18348,2021-01-15 19:05:14:873
0.144,-9.79,-0.041,0,0,0,18358,2021-01-15 19:05:14:883
0.144,-9.79,-0.041,0,0,0,18368,2021-01-15 19:05:14:893
0.168,-9.817,-0.031,0,0,0,18378,2021-01-15 19:05:14:903
0.168,-9.817,-0.031,0,0,0,18387,2021-01-15 19:05:14:912
0.168,-9.817,-0.031,0,0,0,18397,2021-01-15 19:05:14:922
0.168,-9.817,-0.031,0,0,0,18408,2021-01-15 19:05:14:933
0.168,-9.817,-0.031,0,0,0,18418,2021-01-15 19:05:14:943
0.168,-9.817,-0.031,0,0,0,18428,2021-01-15 19:05:14:953
0.168,-9.817,-0.031,0,0,0,18438,2021-01-15 19:05:14:963
0.17,-9.797,-0.038,0,0,0,18447,2021-01-15 19:05:14:972
0.17,-9.797,-0.038,0,0,0,18458,2021-01-15 19:05:14:983
0.17,-9.797,-0.038,0,0,0,18469,2021-01-15 19:05:14:994
0.17,-9.797,-0.038,0,0,0,18478,2021-01-15 19:05:15:003
0.17,-9.797,-0.038,0,0,0,18488,2021-01-15 19:05:15:013
0.175,-9.79,-0.024,0,0,0,18498,2021-01-15 19:05:15:023
0.175,-9.79,-0.024,0,0,0,18511,2021-01-15 19:05:15:036
0.175,-9.79,-0.024,0,0,0,18517,2021-01-15 19:05:15:042
0.175,-9.79,-0.024,0,-0.001,0,18528,2021-01-15 19:05:15:053
0.175,-9.79,-0.024,0,-0.001,0,18538,2021-01-15 19:05:15:063
0.175,-9.79,-0.024,0,-0.001,0,18548,2021-01-15 19:05:15:073
0.175,-9.79,-0.024,0,-0.001,0,18557,2021-01-15 19:05:15:082
0.18,-9.795,-0.053,0,-0.001,0,18568,2021-01-15 19:05:15:093
0.18,-9.795,-0.053,0,-0.001,0,18578,2021-01-15 19:05:15:103
0.18,-9.795,-0.053,0,-0.001,0,18588,2021-01-15 19:05:15:113
0.18,-9.795,-0.053,0,-0.001,0,18598,2021-01-15 19:05:15:123
0.18,-9.795,-0.053,0,-0.001,0,18607,2021-01-15 19:05:15:132
0.18,-9.795,-0.053,0,-0.001,0,18618,2021-01-15 19:05:15:143
0.158,-9.788,-0.038,0,-0.001,0,18628,2021-01-15 19:05:15:153
0.158,-9.788,-0.038,0,-0.001,0,18638,2021-01-15 19:05:15:163
0.158,-9.788,-0.038,0,0,0,18648,2021-01-15 19:05:15:173
0.158,-9.788,-0.038,0,0,0,18658,2021-01-15 19:05:15:183
0.158,-9.788,-0.038,0,0,0,18668,2021-01-15 19:05:15:193
0.146,-9.785,-0.057,0,0,0,18678,2021-01-15 19:05:15:203
0.146,-9.785,-0.057,0,0,0,18688,2021-01-15 19:05:15:213
0.146,-9.785,-0.057,0,0,0,18697,2021-01-15 19:05:15:222
0.146,-9.785,-0.057,0,0,0,18708,2021-01-15 19:05:15:233
0.146,-9.785,-0.057,0,0,0,18718,2021-01-15 19:05:15:243
0.146,-9.785,-0.057,0,0,0,18728,2021-01-15 19:05:15:253
0.146,-9.785,-0.057,0,0,0,18738,2021-01-15 19:05:15:263
0.165,-9.781,-0.05,0,0,0,18748,2021-01-15 19:05:15:273
0.165,-9.781,-0.05,0,0,0,18758,2021-01-15 19:05:15:283
0.165,-9.781,-0.05,-0.001,0.001,0,18768,2021-01-15 19:05:15:293
0.165,-9.781,-0.05,-0.001,0.001,0,18777,2021-01-15 19:05:15:302
0.165,-9.781,-0.05,-0.001,0.001,0,18788,2021-01-15 19:05:15:313
0.165,-9.8,-0.029,-0.001,0.001,0,18797,2021-01-15 19:05:15:322
0.17,-9.8,-0.029,-0.001,0.001,0,18809,2021-01-15 19:05:15:334
0.17,-9.8,-0.029,-0.001,0.001,0,18819,2021-01-15 19:05:15:344
0.17,-9.8,-0.029,-0.001,0.001,0,18828,2021-01-15 19:05:15:353
0.17,-9.8,-0.029,-0.001,0.001,0,18838,2021-01-15 19:05:15:363
0.17,-9.8,-0.029,-0.001,0.001,0,18848,2021-01-15 19:05:15:373
0.17,-9.8,-0.029,-0.001,0.001,0,18857,2021-01-15 19:05:15:382
0.16,-9.788,-0.062,-0.001,0.001,0,18868,2021-01-15 19:05:15:393
0.16,-9.788,-0.062,-0.001,0.001,0,18878,2021-01-15 19:05:15:403
0.16,-9.788,-0.062,0,0,0,18888,2021-01-15 19:05:15:413
0.16,-9.788,-0.062,0,0,0,18898,2021-01-15 19:05:15:423
0.16,-9.788,-0.062,0,0,0,18908,2021-01-15 19:05:15:433
0.177,-9.79,-0.038,0,0,0,18918,2021-01-15 19:05:15:443
0.177,-9.79,-0.038,0,0,0,18928,2021-01-15 19:05:15:453
0.177,-9.79,-0.038,0,0,0,18938,2021-01-15 19:05:15:463
0.177,-9.79,-0.038,0,0,0,18949,2021-01-15 19:05:15:474
0.177,-9.79,-0.038,0,0,0,18958,2021-01-15 19:05:15:483
0.177,-9.79,-0.038,0,0,0,18968,2021-01-15 19:05:15:493
0.177,-9.79,-0.038,0,0,0,18978,2021-01-15 19:05:15:503
0.175,-9.793,-0.024,0,0,0,18988,2021-01-15 19:05:15:513
0.175,-9.793,-0.024,0,0,0,18999,2021-01-15 19:05:15:524
0.175,-9.793,-0.024,0,-0.001,0,19008,2021-01-15 19:05:15:533
0.175,-9.793,-0.024,0,-0.001,0,19019,2021-01-15 19:05:15:544
0.175,-9.793,-0.024,0,-0.001,0,19029,2021-01-15 19:05:15:554
0.175,-9.793,-0.024,0,-0.001,0,19040,2021-01-15 19:05:15:565
0.163,-9.783,-0.055,0,-0.001,0,19048,2021-01-15 19:05:15:573
0.163,-9.783,-0.055,0,-0.001,0,19058,2021-01-15 19:05:15:583
0.163,-9.783,-0.055,0,-0.001,0,19068,2021-01-15 19:05:15:593
0.163,-9.783,-0.055,0,-0.001,0,19078,2021-01-15 19:05:15:603
0.163,-9.783,-0.055,0,-0.001,0,19090,2021-01-15 19:05:15:615
0.163,-9.783,-0.055,0,-0.001,0,19098,2021-01-15 19:05:15:623
0.175,-9.807,-0.034,0,-0.001,0,19108,2021-01-15 19:05:15:633
0.175,-9.807,-0.034,0,-0.001,0,19118,2021-01-15 19:05:15:643
0.175,-9.807,-0.034,-0.001,-0.001,0,19128,2021-01-15 19:05:15:653
0.175,-9.807,-0.034,-0.001,-0.001,0,19138,2021-01-15 19:05:15:663
0.175,-9.807,-0.034,-0.001,-0.001,0,19148,2021-01-15 19:05:15:673
0.175,-9.807,-0.034,-0.001,-0.001,0,19159,2021-01-15 19:05:15:684
0.158,-9.795,-0.057,-0.001,-0.001,0,19168,2021-01-15 19:05:15:693
0.158,-9.795,-0.057,-0.001,-0.001,0,19178,2021-01-15 19:05:15:703
0.158,-9.795,-0.057,-0.001,-0.001,0,19188,2021-01-15 19:05:15:713
0.158,-9.795,-0.057,-0.001,-0.001,0,19197,2021-01-15 19:05:15:722
0.158,-9.795,-0.057,-0.001,-0.001,0,19209,2021-01-15 19:05:15:734
0.156,-9.788,-0.043,-0.001,-0.001,0,19219,2021-01-15 19:05:15:744
0.156,-9.788,-0.043,-0.001,-0.001,0,19228,2021-01-15 19:05:15:753
0.156,-9.788,-0.043,-0.001,-0.001,0,19238,2021-01-15 19:05:15:763
0.156,-9.788,-0.043,0,0,0,19248,2021-01-15 19:05:15:773
0.156,-9.788,-0.043,0,0,0,19258,2021-01-15 19:05:15:783
0.156,-9.788,-0.043,0,0,0,19268,2021-01-15 19:05:15:793
0.172,-9.795,-0.05,0,0,0,19278,2021-01-15 19:05:15:803
0.172,-9.795,-0.05,0,0,0,19289,2021-01-15 19:05:15:814
0.172,-9.795,-0.05,0,0,0,19299,2021-01-15 19:05:15:824
0.172,-9.795,-0.05,0,0,0,19308,2021-01-15 19:05:15:833
0.172,-9.795,-0.05,0,0,0,19320,2021-01-15 19:05:15:845
0.172,-9.795,-0.05,0,0,0,19327,2021-01-15 19:05:15:852
0.172,-9.795,-0.05,0,0,0,19339,2021-01-15 19:05:15:864
0.175,-9.795,-0.034,0,0,0,19348,2021-01-15 19:05:15:873
0.175,-9.795,-0.034,0,0,0,19359,2021-01-15 19:05:15:884
0.175,-9.795,-0.034,-0.001,0,0,19368,2021-01-15 19:05:15:893
0.175,-9.795,-0.034,-0.001,0,0,19378,2021-01-15 19:05:15:903
0.175,-9.795,-0.034,-0.001,0,0,19392,2021-01-15 19:05:15:917
0.175,-9.795,-0.034,-0.001,0,0,19398,2021-01-15 19:05:15:923
0.17,-9.807,-0.026,-0.001,0,0,19408,2021-01-15 19:05:15:933
0.17,-9.807,-0.026,-0.001,0,0,19418,2021-01-15 19:05:15:943
0.17,-9.807,-0.026,-0.001,0,0,19429,2021-01-15 19:05:15:954
0.17,-9.807,-0.026,0,0,0,19437,2021-01-15 19:05:15:962
0.17,-9.807,-0.026,0,0,0,19448,2021-01-15 19:05:15:973
0.168,-9.797,-0.026,0,0,0,19458,2021-01-15 19:05:15:983
0.168,-9.797,-0.026,0,0,0,19468,2021-01-15 19:05:15:993
0.168,-9.797,-0.026,0,0,0,19479,2021-01-15 19:05:16:004
0.168,-9.797,-0.026,0,0,0,19488,2021-01-15 19:05:16:013
0.168,-9.797,-0.026,0,0,0,19498,2021-01-15 19:05:16:023
0.168,-9.797,-0.026,0,0,0,19507,2021-01-15 19:05:16:032
0.168,-9.797,-0.026,0,0,0,19518,2021-01-15 19:05:16:043
0.175,-9.793,-0.029,0,0,0,19527,2021-01-15 19:05:16:052
0.175,-9.793,-0.029,0,0,0,19538,2021-01-15 19:05:16:063
0.175,-9.793,-0.029,0.001,0,0,19548,2021-01-15 19:05:16:073
0.175,-9.793,-0.029,0.001,0,0,19558,2021-01-15 19:05:16:083
0.175,-9.793,-0.029,0.001,0,0,19568,2021-01-15 19:05:16:093
0.175,-9.793,-0.029,0.001,0,0,19578,2021-01-15 19:05:16:103
0.172,-9.797,-0.029,0.001,0,0,19588,2021-01-15 19:05:16:113
0.172,-9.797,-0.029,0.001,0,0,19598,2021-01-15 19:05:16:123
0.172,-9.797,-0.029,0.001,0,0,19608,2021-01-15 19:05:16:133
0.172,-9.797,-0.029,0.001,0,0,19618,2021-01-15 19:05:16:143
0.172,-9.797,-0.029,0.001,0,0,19628,2021-01-15 19:05:16:153
0.168,-9.802,-0.034,0.001,0,0,19640,2021-01-15 19:05:16:165
0.168,-9.802,-0.034,0.001,0,0,19647,2021-01-15 19:05:16:172
0.168,-9.802,-0.034,0.001,0,0,19657,2021-01-15 19:05:16:182
0.168,-9.802,-0.034,0,0,0,19668,2021-01-15 19:05:16:193
0.168,-9.802,-0.034,0,0,0,19680,2021-01-15 19:05:16:205
0.168,-9.802,-0.034,0,0,0,19688,2021-01-15 19:05:16:213
0.175,-9.795,-0.026,0,0,0,19698,2021-01-15 19:05:16:223
0.175,-9.795,-0.026,0,0,0,19708,2021-01-15 19:05:16:233
0.175,-9.795,-0.026,0,0,0,19719,2021-01-15 19:05:16:244
0.175,-9.795,-0.026,0,0,0,19728,2021-01-15 19:05:16:253
0.175,-9.795,-0.026,0,0,0,19738,2021-01-15 19:05:16:263
0.175,-9.795,-0.026,0,0,0,19748,2021-01-15 19:05:16:273
0.175,-9.795,-0.026,0,0,0,19759,2021-01-15 19:05:16:284
0.165,-9.785,-0.026,0,0,0,19768,2021-01-15 19:05:16:293
0.165,-9.785,-0.026,0,0,0,19778,2021-01-15 19:05:16:303
0.165,-9.785,-0.026,-0.001,0,0,19789,2021-01-15 19:05:16:314
0.165,-9.785,-0.026,-0.001,0,0,19798,2021-01-15 19:05:16:323
0.165,-9.785,-0.026,-0.001,0,0,19808,2021-01-15 19:05:16:333
0.165,-9.785,-0.026,-0.001,0,0,19818,2021-01-15 19:05:16:343
0.172,-9.795,-0.024,-0.001,0,0,19828,2021-01-15 19:05:16:353
0.172,-9.795,-0.024,-0.001,0,0,19838,2021-01-15 19:05:16:363
0.172,-9.795,-0.024,-0.001,0,0,19848,2021-01-15 19:05:16:373
0.172,-9.795,-0.024,-0.001,0,0,19858,2021-01-15 19:05:16:383
0.172,-9.795,-0.024,-0.001,0,0,19867,2021-01-15 19:05:16:392
0.172,-9.795,-0.024,-0.001,0,0,19878,2021-01-15 19:05:16:403
0.172,-9.776,-0.014,-0.001,0,0,19888,2021-01-15 19:05:16:413
0.172,-9.776,-0.014,-0.001,0,0,19897,2021-01-15 19:05:16:422
0.172,-9.776,-0.014,-0.001,0,0,19908,2021-01-15 19:05:16:433
0.172,-9.776,-0.014,-0.001,0,0,19918,2021-01-15 19:05:16:443
0.165,-9.797,-0.022,-0.001,0,0,19943,2021-01-15 19:05:16:468
0.165,-9.797,-0.022,-0.001,0,0,19944,2021-01-15 19:05:16:469
0.165,-9.797,-0.022,-0.001,0,0,19952,2021-01-15 19:05:16:477
0.165,-9.797,-0.022,-0.001,0,0,19958,2021-01-15 19:05:16:483
0.165,-9.797,-0.022,-0.001,0,0,19968,2021-01-15 19:05:16:493
0.165,-9.797,-0.022,-0.001,0,0,19979,2021-01-15 19:05:16:504
0.165,-9.797,-0.022,-0.001,0,0,19988,2021-01-15 19:05:16:513
0.165,-9.797,-0.022,-0.001,0,0,19998,2021-01-15 19:05:16:523
0.17,-9.807,-0.05,-0.001,0,0,20008,2021-01-15 19:05:16:533
0.17,-9.807,-0.05,-0.001,0,0,20018,2021-01-15 19:05:16:543
0.17,-9.807,-0.05,0,0,0,20028,2021-01-15 19:05:16:553
0.17,-9.807,-0.05,0,0,0,20038,2021-01-15 19:05:16:563
0.17,-9.807,-0.05,0,0,0,20048,2021-01-15 19:05:16:573
0.163,-9.788,-0.041,0,0,0,20061,2021-01-15 19:05:16:586
0.163,-9.788,-0.041,0,0,0,20068,2021-01-15 19:05:16:593
0.163,-9.788,-0.041,0,0,0,20077,2021-01-15 19:05:16:602
0.163,-9.788,-0.041,0,0,0,20088,2021-01-15 19:05:16:613
0.163,-9.788,-0.041,0,0,0,20098,2021-01-15 19:05:16:623
0.163,-9.788,-0.041,0,0,0,20108,2021-01-15 19:05:16:633
0.163,-9.788,-0.041,0,0,0,20118,2021-01-15 19:05:16:643
0.182,-9.785,-0.05,0,0,0,20127,2021-01-15 19:05:16:652
0.182,-9.785,-0.05,0,0,0,20140,2021-01-15 19:05:16:665
0.182,-9.785,-0.05,-0.001,0.001,0,20148,2021-01-15 19:05:16:673
0.182,-9.785,-0.05,-0.001,0.001,0,20158,2021-01-15 19:05:16:683
0.182,-9.785,-0.05,-0.001,0.001,0,20168,2021-01-15 19:05:16:693
0.182,-9.785,-0.05,-0.001,0.001,0,20178,2021-01-15 19:05:16:703
0.18,-9.802,-0.036,-0.001,0.001,0,20187,2021-01-15 19:05:16:712
0.18,-9.802,-0.036,-0.001,0.001,0,20200,2021-01-15 19:05:16:725
0.18,-9.802,-0.036,-0.001,0.001,0,20208,2021-01-15 19:05:16:733
0.18,-9.802,-0.036,-0.001,0.001,0,20218,2021-01-15 19:05:16:743
0.18,-9.802,-0.036,-0.001,0.001,0,20228,2021-01-15 19:05:16:753
0.18,-9.802,-0.036,-0.001,0.001,0,20238,2021-01-15 19:05:16:763
0.163,-9.795,-0.031,-0.001,0.001,0,20248,2021-01-15 19:05:16:773
0.163,-9.795,-0.031,-0.001,0.001,0,20258,2021-01-15 19:05:16:783
0.163,-9.795,-0.031,0,0.001,0,20268,2021-01-15 19:05:16:793
0.163,-9.795,-0.031,0,0.001,0,20278,2021-01-15 19:05:16:803
0.163,-9.795,-0.031,0,0.001,0,20304,2021-01-15 19:05:16:829
0.163,-9.795,-0.031,0,0.001,0,20305,2021-01-15 19:05:16:830
0.163,-9.788,-0.048,0,0.001,0,20310,2021-01-15 19:05:16:835
0.163,-9.788,-0.048,0,0.001,0,20318,2021-01-15 19:05:16:843
0.163,-9.788,-0.048,0,0.001,0,20329,2021-01-15 19:05:16:854
0.163,-9.788,-0.048,0,0.001,0,20340,2021-01-15 19:05:16:865
0.163,-9.788,-0.048,0,0.001,0,20349,2021-01-15 19:05:16:874
0.163,-9.788,-0.048,0,0.001,0,20360,2021-01-15 19:05:16:885
0.163,-9.788,-0.048,0,0.001,0,20367,2021-01-15 19:05:16:892
0.163,-9.788,-0.048,0,0.001,0,20378,2021-01-15 19:05:16:903
0.158,-9.79,-0.034,-0.001,0,0,20389,2021-01-15 19:05:16:914
0.158,-9.79,-0.034,-0.001,0,0,20398,2021-01-15 19:05:16:923
0.158,-9.79,-0.034,-0.001,0,0,20410,2021-01-15 19:05:16:935
0.158,-9.79,-0.034,-0.001,0,0,20419,2021-01-15 19:05:16:944
0.158,-9.79,-0.034,-0.001,0,0,20429,2021-01-15 19:05:16:954
0.158,-9.79,-0.034,-0.001,0,0,20438,2021-01-15 19:05:16:963
0.158,-9.79,-0.034,-0.001,0,0,20448,2021-01-15 19:05:16:973
0.148,-9.785,-0.062,-0.001,0,0,20458,2021-01-15 19:05:16:983
0.148,-9.785,-0.062,-0.001,0,0,20468,2021-01-15 19:05:16:993
0.148,-9.785,-0.062,-0.001,0,0,20478,2021-01-15 19:05:17:003
0.148,-9.785,-0.062,-0.001,0,0,20488,2021-01-15 19:05:17:013
0.148,-9.785,-0.062,-0.001,0,0,20497,2021-01-15 19:05:17:022
0.148,-9.785,-0.062,0,0,0,20508,2021-01-15 19:05:17:033
0.148,-9.785,-0.062,0,0,0,20518,2021-01-15 19:05:17:043
0.172,-9.795,-0.043,0,0,0,20528,2021-01-15 19:05:17:053
0.172,-9.795,-0.043,0,0,0,20545,2021-01-15 19:05:17:070
0.172,-9.795,-0.043,0,0,0,20549,2021-01-15 19:05:17:074
0.172,-9.795,-0.043,0,0,0,20558,2021-01-15 19:05:17:083
0.172,-9.795,-0.043,0,0,0,20568,2021-01-15 19:05:17:093
0.172,-9.795,-0.043,0,0,0,20579,2021-01-15 19:05:17:104
0.168,-9.797,-0.048,0,0,0,20588,2021-01-15 19:05:17:113
0.168,-9.797,-0.048,0,0,0,20599,2021-01-15 19:05:17:124
0.168,-9.797,-0.048,0,0,0,20608,2021-01-15 19:05:17:133
0.168,-9.797,-0.048,0,0,0,20618,2021-01-15 19:05:17:143
0.168,-9.797,-0.048,0,0,0,20631,2021-01-15 19:05:17:156
0.168,-9.797,-0.048,0,0,0,20638,2021-01-15 19:05:17:163
0.165,-9.793,-0.06,0,0,0,20648,2021-01-15 19:05:17:173
0.165,-9.793,-0.06,0,0,0,20659,2021-01-15 19:05:17:184
0.165,-9.793,-0.06,0,0,0,20668,2021-01-15 19:05:17:193
0.165,-9.793,-0.06,0,0,0,20677,2021-01-15 19:05:17:202
0.165,-9.793,-0.06,0,0,0,20688,2021-01-15 19:05:17:213
0.172,-9.783,-0.036,0,0,0,20699,2021-01-15 19:05:17:224
0.172,-9.783,-0.036,0,0,0,20708,2021-01-15 19:05:17:233
0.172,-9.783,-0.036,0,0,0,20718,2021-01-15 19:05:17:243
0.172,-9.783,-0.036,0,0,0,20728,2021-01-15 19:05:17:253
0.172,-9.783,-0.036,0,0,0,20738,2021-01-15 19:05:17:263
0.172,-9.783,-0.036,0,0,0,20749,2021-01-15 19:05:17:274
0.172,-9.783,-0.036,0,0,0,20758,2021-01-15 19:05:17:283
0.16,-9.793,-0.029,0,0,0,20768,2021-01-15 19:05:17:293
0.16,-9.793,-0.029,0,0,0,20779,2021-01-15 19:05:17:304
0.16,-9.793,-0.029,0,0,0,20789,2021-01-15 19:05:17:314
0.16,-9.793,-0.029,0,0,0,20798,2021-01-15 19:05:17:323
0.16,-9.793,-0.029,0,0,0,20809,2021-01-15 19:05:17:334
0.16,-9.793,-0.029,0,0,0,20818,2021-01-15 19:05:17:343
0.172,-9.783,-0.034,0,0,0,20828,2021-01-15 19:05:17:353
0.172,-9.783,-0.034,0,0,0,20838,2021-01-15 19:05:17:363
0.172,-9.783,-0.034,0,0,0,20847,2021-01-15 19:05:17:372
0.172,-9.783,-0.034,0,0,0,20859,2021-01-15 19:05:17:384
0.172,-9.783,-0.034,0,0,0,20868,2021-01-15 19:05:17:393
0.172,-9.783,-0.034,0,0,0,20879,2021-01-15 19:05:17:404
0.17,-9.802,-0.022,0,0,0,20888,2021-01-15 19:05:17:413
0.17,-9.802,-0.022,0,0,0,20898,2021-01-15 19:05:17:423
0.17,-9.802,-0.022,0,0,0,20910,2021-01-15 19:05:17:435
0.17,-9.802,-0.022,0,0,0,20918,2021-01-15 19:05:17:443
0.17,-9.802,-0.022,0,0,0,20928,2021-01-15 19:05:17:453
0.163,-9.781,-0.045,0,0,0,20941,2021-01-15 19:05:17:466
0.163,-9.781,-0.045,0,0,0,20948,2021-01-15 19:05:17:473
0.163,-9.781,-0.045,0,0,0,20958,2021-01-15 19:05:17:483
0.163,-9.781,-0.045,0,0,0,20968,2021-01-15 19:05:17:493
0.163,-9.781,-0.045,0,0,0,20977,2021-01-15 19:05:17:502
0.163,-9.781,-0.045,0,-0.001,0,20988,2021-01-15 19:05:17:513
0.16,-9.795,-0.048,0,-0.001,0,20998,2021-01-15 19:05:17:523
0.16,-9.795,-0.048,0,-0.001,0,21009,2021-01-15 19:05:17:534
0.16,-9.795,-0.048,0,-0.001,0,21018,2021-01-15 19:05:17:543
0.16,-9.795,-0.048,0,-0.001,0,21029,2021-01-15 19:05:17:554
0.16,-9.795,-0.048,0,-0.001,0,21038,2021-01-15 19:05:17:563
0.16,-9.795,-0.048,0,-0.001,0,21047,2021-01-15 19:05:17:572
0.16,-9.795,-0.048,0,-0.001,0,21061,2021-01-15 19:05:17:586
0.175,-9.783,-0.048,0,-0.001,0,21068,2021-01-15 19:05:17:593
0.175,-9.783,-0.048,0,-0.001,0,21079,2021-01-15 19:05:17:604
0.175,-9.783,-0.048,0,-0.001,0,21088,2021-01-15 19:05:17:613
0.175,-9.783,-0.048,0,-0.001,0,21098,2021-01-15 19:05:17:623
0.175,-9.783,-0.048,-0.001,0,0,21111,2021-01-15 19:05:17:636
0.177,-9.802,-0.045,-0.001,0,0,21118,2021-01-15 19:05:17:643
0.177,-9.802,-0.045,-0.001,0,0,21130,2021-01-15 19:05:17:655
0.177,-9.802,-0.045,-0.001,0,0,21138,2021-01-15 19:05:17:663
0.177,-9.802,-0.045,-0.001,0,0,21148,2021-01-15 19:05:17:673
0.177,-9.802,-0.045,-0.001,0,0,21158,2021-01-15 19:05:17:683
0.177,-9.802,-0.045,-0.001,0,0,21168,2021-01-15 19:05:17:693
0.177,-9.802,-0.045,-0.001,0,0,21178,2021-01-15 19:05:17:703
0.163,-9.805,-0.041,-0.001,0,0,21188,2021-01-15 19:05:17:713
0.163,-9.805,-0.041,-0.001,0,0,21198,2021-01-15 19:05:17:723
0.163,-9.805,-0.041,-0.001,0,0,21208,2021-01-15 19:05:17:733
0.163,-9.805,-0.041,-0.001,0,0,21218,2021-01-15 19:05:17:743
0.163,-9.805,-0.041,0,0,0,21230,2021-01-15 19:05:17:755
0.163,-9.805,-0.041,0,0,0,21238,2021-01-15 19:05:17:763
0.17,-9.795,-0.055,0,0,0,21247,2021-01-15 19:05:17:772
0.17,-9.795,-0.055,0,0,0,21258,2021-01-15 19:05:17:783
0.17,-9.795,-0.055,0,0,0,21268,2021-01-15 19:05:17:793
0.17,-9.795,-0.055,0,0,0,21279,2021-01-15 19:05:17:804
