ACCELEROMETER X (m/sֲ²),ACCELEROMETER Y (m/sֲ²),ACCELEROMETER Z (m/sֲ²),GYROSCOPE X (rad/s),GYROSCOPE Y (rad/s),GYROSCOPE Z (rad/s),Time since start in ms ,YYYY-MO-DD HH-MI-SS_SSS
-0.165,9.778,0.268,0,0,0,16,2021-01-15 19:05:54:868
-0.165,9.778,0.268,0,0,0,29,2021-01-15 19:05:54:881
-0.165,9.778,0.268,0,0,0,36,2021-01-15 19:05:54:888
-0.165,9.778,0.268,0,0,0,46,2021-01-15 19:05:54:898
-0.165,9.778,0.268,0,0,0,57,2021-01-15 19:05:54:909
-0.165,9.778,0.268,0,0,0,66,2021-01-15 19:05:54:918
-0.168,9.771,0.261,0,0,0,75,2021-01-15 19:05:54:927
-0.168,9.771,0.261,0,0,0,86,2021-01-15 19:05:54:938
-0.168,9.771,0.261,0,0,0,95,2021-01-15 19:05:54:947
-0.168,9.771,0.261,0,0,0,106,2021-01-15 19:05:54:958
-0.168,9.771,0.261,0,0,0,116,2021-01-15 19:05:54:968
-0.168,9.771,0.261,0,0,0,125,2021-01-15 19:05:54:977
-0.158,9.781,0.266,0,0,0,136,2021-01-15 19:05:54:988
-0.158,9.781,0.266,0,0,0,146,2021-01-15 19:05:54:998
-0.158,9.781,0.266,0,0,0,156,2021-01-15 19:05:55:008
-0.158,9.781,0.266,0,0,0,166,2021-01-15 19:05:55:018
-0.158,9.781,0.266,0,0,0,176,2021-01-15 19:05:55:028
-0.158,9.781,0.266,0,0,0,186,2021-01-15 19:05:55:038
-0.158,9.766,0.266,0,0,0,196,2021-01-15 19:05:55:048
-0.158,9.766,0.266,0,0,0,206,2021-01-15 19:05:55:058
-0.158,9.766,0.266,0,0,0,220,2021-01-15 19:05:55:072
-0.158,9.766,0.266,0,0,0,226,2021-01-15 19:05:55:078
-0.158,9.766,0.266,0,0,0,236,2021-01-15 19:05:55:088
-0.158,9.766,0.266,0,0,0,246,2021-01-15 19:05:55:098
-0.165,9.771,0.263,0,0,0,256,2021-01-15 19:05:55:108
-0.165,9.771,0.263,0,0,0,265,2021-01-15 19:05:55:117
-0.165,9.771,0.263,0,0,0,276,2021-01-15 19:05:55:128
-0.165,9.771,0.263,0,0,0,286,2021-01-15 19:05:55:138
-0.165,9.771,0.263,0,0,0,296,2021-01-15 19:05:55:148
-0.165,9.771,0.263,0,0,0,306,2021-01-15 19:05:55:158
-0.172,9.771,0.283,0,0,0,316,2021-01-15 19:05:55:168
-0.172,9.771,0.283,0,0,0,326,2021-01-15 19:05:55:178
-0.172,9.771,0.283,0,0,0,336,2021-01-15 19:05:55:188
-0.172,9.771,0.283,0,0,0,348,2021-01-15 19:05:55:200
-0.172,9.771,0.283,0,0,0,356,2021-01-15 19:05:55:208
-0.172,9.771,0.283,0,0,0,366,2021-01-15 19:05:55:218
-0.151,9.783,0.271,0,0,0,378,2021-01-15 19:05:55:230
-0.151,9.783,0.271,0,0,0,386,2021-01-15 19:05:55:238
-0.151,9.783,0.271,0,0,0,396,2021-01-15 19:05:55:248
-0.151,9.783,0.271,0,0,0,406,2021-01-15 19:05:55:258
-0.151,9.783,0.271,0,0,0,416,2021-01-15 19:05:55:268
-0.18,9.783,0.261,0,0,0,433,2021-01-15 19:05:55:285
-0.18,9.783,0.261,0,0,0,436,2021-01-15 19:05:55:288
-0.18,9.783,0.261,0,0,0,446,2021-01-15 19:05:55:298
-0.18,9.783,0.261,0,0,0,456,2021-01-15 19:05:55:308
-0.18,9.783,0.261,0,0,0,466,2021-01-15 19:05:55:318
-0.18,9.783,0.261,0,0,0,478,2021-01-15 19:05:55:330
-0.18,9.783,0.261,0,0,0,486,2021-01-15 19:05:55:338
-0.158,9.778,0.271,0,0,0,497,2021-01-15 19:05:55:349
-0.158,9.778,0.271,0,0,0,506,2021-01-15 19:05:55:358
-0.158,9.778,0.271,0,0,0,516,2021-01-15 19:05:55:368
-0.158,9.778,0.271,0,0,0,526,2021-01-15 19:05:55:378
-0.158,9.778,0.271,0,0,0,536,2021-01-15 19:05:55:388
-0.158,9.778,0.271,0,0,0,546,2021-01-15 19:05:55:398
-0.156,9.781,0.287,0,0,0,557,2021-01-15 19:05:55:409
-0.156,9.781,0.287,0,0,0,566,2021-01-15 19:05:55:418
-0.156,9.781,0.287,0,0,0,576,2021-01-15 19:05:55:428
-0.156,9.781,0.287,0,0,0,586,2021-01-15 19:05:55:438
-0.156,9.781,0.287,0,0,0,596,2021-01-15 19:05:55:448
-0.156,9.781,0.287,0,0,0,607,2021-01-15 19:05:55:459
-0.165,9.773,0.287,0,0,0,616,2021-01-15 19:05:55:468
-0.165,9.773,0.287,0,0,0,626,2021-01-15 19:05:55:478
-0.165,9.773,0.287,0,0,0,636,2021-01-15 19:05:55:488
-0.165,9.773,0.287,0,0,0,646,2021-01-15 19:05:55:498
-0.165,9.773,0.287,0,0,0,656,2021-01-15 19:05:55:508
-0.165,9.773,0.287,0,0,0,666,2021-01-15 19:05:55:518
-0.163,9.776,0.283,0,0,0,676,2021-01-15 19:05:55:528
-0.163,9.776,0.283,0,0,0,690,2021-01-15 19:05:55:542
-0.163,9.776,0.283,0,0,0,698,2021-01-15 19:05:55:550
-0.163,9.776,0.283,0,0,0,706,2021-01-15 19:05:55:558
-0.163,9.776,0.283,0,0,0,716,2021-01-15 19:05:55:568
-0.163,9.776,0.283,0,0,0,727,2021-01-15 19:05:55:579
-0.17,9.771,0.278,0,0,0,736,2021-01-15 19:05:55:588
-0.17,9.771,0.278,0,0,0,746,2021-01-15 19:05:55:598
-0.17,9.771,0.278,0,0,0,756,2021-01-15 19:05:55:608
-0.17,9.771,0.278,0,0,0,771,2021-01-15 19:05:55:623
-0.17,9.771,0.278,0,0,0,776,2021-01-15 19:05:55:628
-0.17,9.771,0.278,0,0,0,787,2021-01-15 19:05:55:639
-0.163,9.773,0.263,0,0,0,797,2021-01-15 19:05:55:649
-0.163,9.773,0.263,0,0,0,808,2021-01-15 19:05:55:660
-0.163,9.773,0.263,0,0,0,816,2021-01-15 19:05:55:668
-0.163,9.773,0.263,0,0,0,825,2021-01-15 19:05:55:677
-0.163,9.773,0.263,0,0,0,836,2021-01-15 19:05:55:688
-0.163,9.773,0.263,0,0,0,846,2021-01-15 19:05:55:698
-0.163,9.764,0.275,0,0,0,856,2021-01-15 19:05:55:708
-0.163,9.764,0.275,0,0,0,869,2021-01-15 19:05:55:721
-0.163,9.764,0.275,0,0,0,876,2021-01-15 19:05:55:728
-0.163,9.764,0.275,0,0,0,886,2021-01-15 19:05:55:738
-0.163,9.764,0.275,0,0,0,897,2021-01-15 19:05:55:749
-0.163,9.764,0.275,0,0,0,906,2021-01-15 19:05:55:758
-0.16,9.79,0.28,0,0,0,916,2021-01-15 19:05:55:768
-0.16,9.79,0.28,0,0,0,927,2021-01-15 19:05:55:779
-0.16,9.79,0.28,0,0,0,936,2021-01-15 19:05:55:788
-0.16,9.79,0.28,0,0,0,946,2021-01-15 19:05:55:798
-0.16,9.79,0.28,0,0,0,957,2021-01-15 19:05:55:809
-0.16,9.79,0.28,0,0,0,965,2021-01-15 19:05:55:817
-0.148,9.783,0.278,0,0,0,976,2021-01-15 19:05:55:828
-0.148,9.783,0.278,0,0,0,986,2021-01-15 19:05:55:838
-0.148,9.783,0.278,0,0,0,997,2021-01-15 19:05:55:849
-0.148,9.783,0.278,0,0,0,1006,2021-01-15 19:05:55:858
-0.148,9.783,0.278,0,0,0,1017,2021-01-15 19:05:55:869
-0.148,9.783,0.278,0,0,0,1026,2021-01-15 19:05:55:878
-0.163,9.783,0.28,0,0,0,1036,2021-01-15 19:05:55:888
-0.163,9.783,0.28,0,0,0,1046,2021-01-15 19:05:55:898
-0.163,9.783,0.28,0,0,0,1056,2021-01-15 19:05:55:908
-0.163,9.783,0.28,0,0,0,1075,2021-01-15 19:05:55:927
-0.163,9.783,0.28,0,0,0,1076,2021-01-15 19:05:55:928
-0.163,9.783,0.28,0,0,0,1086,2021-01-15 19:05:55:938
-0.168,9.776,0.275,0,0,0,1096,2021-01-15 19:05:55:948
-0.168,9.776,0.275,0,0,0,1107,2021-01-15 19:05:55:959
-0.168,9.776,0.275,0,0,0,1116,2021-01-15 19:05:55:968
-0.168,9.776,0.275,0,0,0,1126,2021-01-15 19:05:55:978
-0.168,9.776,0.275,0,0,0,1136,2021-01-15 19:05:55:988
-0.168,9.776,0.275,0,0,0,1146,2021-01-15 19:05:55:998
-0.136,9.785,0.263,0,0,0,1156,2021-01-15 19:05:56:008
-0.136,9.785,0.263,0,0,0,1167,2021-01-15 19:05:56:019
-0.136,9.785,0.263,0,0,0,1190,2021-01-15 19:05:56:042
-0.136,9.785,0.263,0,0,0,1190,2021-01-15 19:05:56:042
-0.136,9.785,0.263,0,0,0,1196,2021-01-15 19:05:56:048
-0.136,9.785,0.263,0,0,0,1205,2021-01-15 19:05:56:057
-0.177,9.785,0.247,0,0,0,1216,2021-01-15 19:05:56:068
-0.177,9.785,0.247,0,0,0,1226,2021-01-15 19:05:56:078
-0.177,9.785,0.247,0,0,0,1236,2021-01-15 19:05:56:088
-0.177,9.785,0.247,0,0,0,1246,2021-01-15 19:05:56:098
-0.177,9.785,0.247,0,0,0,1256,2021-01-15 19:05:56:108
-0.177,9.785,0.247,0,0,0,1266,2021-01-15 19:05:56:118
-0.156,9.771,0.256,0,0,0,1276,2021-01-15 19:05:56:128
-0.156,9.771,0.256,0,0,0,1292,2021-01-15 19:05:56:144
-0.156,9.771,0.256,0,0,0,1297,2021-01-15 19:05:56:149
-0.156,9.771,0.256,0,0,0,1310,2021-01-15 19:05:56:162
-0.156,9.771,0.256,0,0,0,1316,2021-01-15 19:05:56:168
-0.156,9.771,0.256,0,0,0,1326,2021-01-15 19:05:56:178
-0.156,9.785,0.268,0,0,0,1341,2021-01-15 19:05:56:193
-0.156,9.785,0.268,0,0,0,1348,2021-01-15 19:05:56:200
-0.156,9.785,0.268,0,0,0,1356,2021-01-15 19:05:56:208
-0.156,9.785,0.268,0,0,0,1366,2021-01-15 19:05:56:218
-0.156,9.785,0.268,0,0,0,1376,2021-01-15 19:05:56:228
-0.156,9.785,0.268,0,0,0,1386,2021-01-15 19:05:56:238
-0.172,9.79,0.287,0,0,0,1398,2021-01-15 19:05:56:250
-0.172,9.79,0.287,0,0,0,1406,2021-01-15 19:05:56:258
-0.172,9.79,0.287,0,0,0,1416,2021-01-15 19:05:56:268
-0.172,9.79,0.287,0,0,0,1427,2021-01-15 19:05:56:279
-0.172,9.79,0.287,0,0,0,1436,2021-01-15 19:05:56:288
-0.172,9.79,0.287,0,0,0,1446,2021-01-15 19:05:56:298
-0.17,9.771,0.273,0,0,0,1455,2021-01-15 19:05:56:307
-0.17,9.771,0.273,0,0,0,1466,2021-01-15 19:05:56:318
-0.17,9.771,0.273,0,0,0,1476,2021-01-15 19:05:56:328
-0.17,9.771,0.273,0,0,0,1486,2021-01-15 19:05:56:338
-0.17,9.771,0.273,0,0,0,1496,2021-01-15 19:05:56:348
-0.17,9.771,0.273,0,0,0,1513,2021-01-15 19:05:56:365
-0.151,9.769,0.268,0,0,0,1516,2021-01-15 19:05:56:368
-0.151,9.769,0.268,0,0,0,1526,2021-01-15 19:05:56:378
-0.151,9.769,0.268,0,0,0,1541,2021-01-15 19:05:56:393
-0.151,9.769,0.268,0,0,0,1548,2021-01-15 19:05:56:400
-0.151,9.769,0.268,0,0,0,1556,2021-01-15 19:05:56:408
-0.151,9.769,0.268,0,0,0,1566,2021-01-15 19:05:56:418
-0.151,9.769,0.268,0,0,0,1576,2021-01-15 19:05:56:428
-0.151,9.769,0.268,0,0,0,1586,2021-01-15 19:05:56:438
-0.158,9.788,0.268,0,0,0,1596,2021-01-15 19:05:56:448
-0.158,9.788,0.268,0,0,0,1608,2021-01-15 19:05:56:460
-0.158,9.788,0.268,0,0,0,1616,2021-01-15 19:05:56:468
-0.158,9.788,0.268,0,0,0,1627,2021-01-15 19:05:56:479
-0.158,9.788,0.268,0,0,0,1637,2021-01-15 19:05:56:489
-0.158,9.788,0.268,0,0,0,1646,2021-01-15 19:05:56:498
-0.163,9.776,0.259,0,0,0,1656,2021-01-15 19:05:56:508
-0.163,9.776,0.259,0,0,0,1666,2021-01-15 19:05:56:518
-0.163,9.776,0.259,0,0,0,1678,2021-01-15 19:05:56:530
-0.163,9.776,0.259,0,0,0,1686,2021-01-15 19:05:56:538
-0.163,9.776,0.259,0,0,0,1696,2021-01-15 19:05:56:548
-0.163,9.776,0.259,0,0,0,1706,2021-01-15 19:05:56:558
-0.163,9.776,0.278,0,0,0,1716,2021-01-15 19:05:56:568
-0.163,9.776,0.278,0,0,0,1728,2021-01-15 19:05:56:580
-0.163,9.776,0.278,0,0,0,1736,2021-01-15 19:05:56:588
-0.163,9.776,0.278,0,0,0,1746,2021-01-15 19:05:56:598
-0.163,9.776,0.278,0,0,0,1756,2021-01-15 19:05:56:608
-0.163,9.776,0.278,0,0,0,1767,2021-01-15 19:05:56:619
-0.158,9.783,0.273,0,0,0,1776,2021-01-15 19:05:56:628
-0.158,9.783,0.273,0,0,0,1787,2021-01-15 19:05:56:639
-0.158,9.783,0.273,0,0,0,1796,2021-01-15 19:05:56:648
-0.158,9.783,0.273,0,0,0,1808,2021-01-15 19:05:56:660
-0.158,9.783,0.273,0,0,0,1816,2021-01-15 19:05:56:668
-0.158,9.783,0.273,0,0,0,1829,2021-01-15 19:05:56:681
-0.156,9.769,0.278,0,0,0,1837,2021-01-15 19:05:56:689
-0.156,9.769,0.278,0,0,0,1846,2021-01-15 19:05:56:698
-0.156,9.769,0.278,0,0,0,1856,2021-01-15 19:05:56:708
-0.156,9.769,0.278,0,0,0,1866,2021-01-15 19:05:56:718
-0.156,9.769,0.278,0,0,0,1876,2021-01-15 19:05:56:728
-0.156,9.769,0.278,0,0,0,1886,2021-01-15 19:05:56:738
-0.17,9.79,0.278,0,0,0,1896,2021-01-15 19:05:56:748
-0.17,9.79,0.278,0,0,0,1907,2021-01-15 19:05:56:759
-0.17,9.79,0.278,0,0,0,1916,2021-01-15 19:05:56:768
-0.17,9.79,0.278,0,0,0,1926,2021-01-15 19:05:56:778
-0.17,9.79,0.278,0,0,0,1938,2021-01-15 19:05:56:790
-0.17,9.79,0.278,0,0,0,1946,2021-01-15 19:05:56:798
-0.146,9.778,0.263,0,0,0,1956,2021-01-15 19:05:56:808
-0.146,9.778,0.263,0,0,0,1966,2021-01-15 19:05:56:818
-0.146,9.778,0.263,0,0,0,1978,2021-01-15 19:05:56:830
-0.146,9.778,0.263,0,0,0,1987,2021-01-15 19:05:56:839
-0.146,9.778,0.263,0,0,0,1996,2021-01-15 19:05:56:848
-0.146,9.778,0.263,0,0,0,2005,2021-01-15 19:05:56:857
-0.156,9.79,0.275,0,0,0,2016,2021-01-15 19:05:56:868
-0.156,9.79,0.275,0,0,0,2028,2021-01-15 19:05:56:880
-0.156,9.79,0.275,0,0,0,2049,2021-01-15 19:05:56:901
-0.156,9.79,0.275,0,0,0,2050,2021-01-15 19:05:56:902
-0.156,9.79,0.275,0,0,0,2056,2021-01-15 19:05:56:908
-0.156,9.79,0.275,0,0,0,2066,2021-01-15 19:05:56:918
-0.158,9.778,0.275,0,0,0,2076,2021-01-15 19:05:56:928
-0.158,9.778,0.275,0,0,0,2090,2021-01-15 19:05:56:942
-0.158,9.778,0.275,0,0,0,2098,2021-01-15 19:05:56:950
-0.158,9.778,0.275,0,0,0,2106,2021-01-15 19:05:56:958
-0.158,9.778,0.275,0,0,0,2117,2021-01-15 19:05:56:969
-0.158,9.778,0.275,0,0,0,2126,2021-01-15 19:05:56:978
-0.17,9.778,0.268,0,0,0,2144,2021-01-15 19:05:56:996
-0.17,9.778,0.268,0,0,0,2147,2021-01-15 19:05:56:999
-0.17,9.778,0.268,0,0,0,2159,2021-01-15 19:05:57:011
-0.17,9.778,0.268,0,0,0,2165,2021-01-15 19:05:57:017
-0.17,9.778,0.268,0,0,0,2176,2021-01-15 19:05:57:028
-0.17,9.778,0.268,0,0,0,2189,2021-01-15 19:05:57:041
-0.17,9.778,0.268,0,0,0,2196,2021-01-15 19:05:57:048
-0.17,9.778,0.268,0,0,0,2206,2021-01-15 19:05:57:058
-0.17,9.778,0.285,0,0,0,2216,2021-01-15 19:05:57:068
-0.17,9.778,0.285,0,0,0,2230,2021-01-15 19:05:57:082
-0.17,9.778,0.285,0,0,0,2246,2021-01-15 19:05:57:098
-0.17,9.778,0.285,0,0,0,2250,2021-01-15 19:05:57:102
-0.17,9.778,0.285,0,0,0,2256,2021-01-15 19:05:57:108
-0.17,9.778,0.285,0,0,0,2266,2021-01-15 19:05:57:118
-0.153,9.766,0.29,0,0,0,2286,2021-01-15 19:05:57:138
-0.153,9.766,0.29,0,0,0,2287,2021-01-15 19:05:57:139
-0.153,9.766,0.29,0,0,0,2298,2021-01-15 19:05:57:150
-0.153,9.766,0.29,0,0,0,2306,2021-01-15 19:05:57:158
-0.153,9.766,0.29,0,0,0,2317,2021-01-15 19:05:57:169
-0.153,9.766,0.29,0,0,0,2326,2021-01-15 19:05:57:178
-0.153,9.766,0.29,0,0,0,2336,2021-01-15 19:05:57:188
-0.153,9.766,0.29,0,0,0,2346,2021-01-15 19:05:57:198
-0.16,9.797,0.266,0,0,0,2356,2021-01-15 19:05:57:208
-0.16,9.797,0.266,0,0,0,2366,2021-01-15 19:05:57:218
-0.16,9.797,0.266,0,0,0,2376,2021-01-15 19:05:57:228
-0.16,9.797,0.266,0,0,0,2386,2021-01-15 19:05:57:238
-0.16,9.797,0.266,0,0,0,2398,2021-01-15 19:05:57:250
-0.16,9.797,0.266,0,0,0,2406,2021-01-15 19:05:57:258
-0.18,9.778,0.275,0,0,0,2419,2021-01-15 19:05:57:271
-0.18,9.778,0.275,0,0,0,2426,2021-01-15 19:05:57:278
-0.18,9.778,0.275,0,0,0,2436,2021-01-15 19:05:57:288
-0.18,9.778,0.275,0,0,0,2446,2021-01-15 19:05:57:298
-0.18,9.778,0.275,0,0,0,2456,2021-01-15 19:05:57:308
-0.18,9.778,0.275,0,0,0,2467,2021-01-15 19:05:57:319
-0.168,9.785,0.266,0,0,0,2476,2021-01-15 19:05:57:328
-0.168,9.785,0.266,0,0,0,2486,2021-01-15 19:05:57:338
-0.168,9.785,0.266,0,0,0,2496,2021-01-15 19:05:57:348
-0.168,9.785,0.266,0,0,0,2506,2021-01-15 19:05:57:358
-0.168,9.785,0.266,0,0,0,2516,2021-01-15 19:05:57:368
-0.168,9.785,0.266,0,0,0,2526,2021-01-15 19:05:57:378
-0.165,9.776,0.266,0,0,0,2536,2021-01-15 19:05:57:388
-0.165,9.776,0.266,0,0,0,2546,2021-01-15 19:05:57:398
-0.165,9.776,0.266,0,0,0,2556,2021-01-15 19:05:57:408
-0.165,9.776,0.266,0,0,0,2565,2021-01-15 19:05:57:417
-0.165,9.776,0.266,0,0,0,2576,2021-01-15 19:05:57:428
-0.165,9.776,0.266,0,0,0,2586,2021-01-15 19:05:57:438
-0.168,9.778,0.268,0,0,0,2596,2021-01-15 19:05:57:448
-0.168,9.778,0.268,0,0,0,2606,2021-01-15 19:05:57:458
-0.168,9.778,0.268,0,0,0,2616,2021-01-15 19:05:57:468
-0.168,9.778,0.268,0,0,0,2626,2021-01-15 19:05:57:478
-0.168,9.778,0.268,0,0,0,2636,2021-01-15 19:05:57:488
-0.168,9.778,0.268,0,0,0,2646,2021-01-15 19:05:57:498
-0.146,9.778,0.235,0,0,0,2658,2021-01-15 19:05:57:510
-0.146,9.778,0.235,0,0,0,2666,2021-01-15 19:05:57:518
-0.146,9.778,0.235,0,0,0,2676,2021-01-15 19:05:57:528
-0.146,9.778,0.235,0,0,0,2686,2021-01-15 19:05:57:538
-0.146,9.778,0.235,0,0,0,2696,2021-01-15 19:05:57:548
-0.146,9.778,0.235,0,0,0,2706,2021-01-15 19:05:57:558
-0.17,9.773,0.266,0,0,0,2715,2021-01-15 19:05:57:567
-0.17,9.773,0.266,0,0,0,2726,2021-01-15 19:05:57:578
-0.17,9.773,0.266,0,0,0,2736,2021-01-15 19:05:57:588
-0.17,9.773,0.266,0,0,0,2746,2021-01-15 19:05:57:598
-0.17,9.773,0.266,0,0,0,2756,2021-01-15 19:05:57:608
-0.17,9.773,0.266,0,0,0,2765,2021-01-15 19:05:57:617
-0.153,9.783,0.273,0,0,0,2776,2021-01-15 19:05:57:628
-0.153,9.783,0.273,0,0,0,2786,2021-01-15 19:05:57:638
-0.153,9.783,0.273,0,0,0,2796,2021-01-15 19:05:57:648
-0.153,9.783,0.273,0,0,0,2806,2021-01-15 19:05:57:658
-0.153,9.783,0.273,0,0,0,2816,2021-01-15 19:05:57:668
-0.153,9.783,0.273,0,0,0,2826,2021-01-15 19:05:57:678
-0.168,9.783,0.266,0,0,0,2836,2021-01-15 19:05:57:688
-0.168,9.783,0.266,0,0,0,2846,2021-01-15 19:05:57:698
-0.168,9.783,0.266,0,0,0,2856,2021-01-15 19:05:57:708
-0.168,9.783,0.266,0,0,0,2866,2021-01-15 19:05:57:718
-0.168,9.783,0.266,0,0,0,2876,2021-01-15 19:05:57:728
-0.168,9.783,0.266,0,0,0,2886,2021-01-15 19:05:57:738
-0.141,9.773,0.28,0,0,0,2896,2021-01-15 19:05:57:748
-0.141,9.773,0.28,0,0,0,2906,2021-01-15 19:05:57:758
-0.141,9.773,0.28,0,0,0,2916,2021-01-15 19:05:57:768
-0.141,9.773,0.28,0,0,0,2927,2021-01-15 19:05:57:779
-0.141,9.773,0.28,0,0,0,2936,2021-01-15 19:05:57:788
-0.141,9.773,0.28,0,0,0,2946,2021-01-15 19:05:57:798
-0.17,9.778,0.28,0,0,0,2956,2021-01-15 19:05:57:808
-0.17,9.778,0.28,0,0,0,2966,2021-01-15 19:05:57:818
-0.17,9.778,0.28,0,0,0,2976,2021-01-15 19:05:57:828
-0.17,9.778,0.28,0,0,0,2986,2021-01-15 19:05:57:838
-0.17,9.778,0.28,0,0,0,2996,2021-01-15 19:05:57:848
-0.17,9.778,0.28,0,0,0,3005,2021-01-15 19:05:57:857
-0.16,9.79,0.266,0,0,0,3015,2021-01-15 19:05:57:867
-0.16,9.79,0.266,0,0,0,3026,2021-01-15 19:05:57:878
-0.16,9.79,0.266,0,0,0,3036,2021-01-15 19:05:57:888
-0.16,9.79,0.266,0,0,0,3046,2021-01-15 19:05:57:898
-0.16,9.79,0.266,0,0,0,3056,2021-01-15 19:05:57:908
-0.16,9.79,0.266,0,0,0,3066,2021-01-15 19:05:57:918
-0.136,9.776,0.268,0,0,0,3076,2021-01-15 19:05:57:928
-0.136,9.776,0.268,0,0,0,3085,2021-01-15 19:05:57:937
-0.136,9.776,0.268,0,0,0,3096,2021-01-15 19:05:57:948
-0.136,9.776,0.268,0,0,0,3106,2021-01-15 19:05:57:958
-0.136,9.776,0.268,0,0,0,3116,2021-01-15 19:05:57:968
-0.136,9.776,0.268,0,0,0,3125,2021-01-15 19:05:57:977
-0.163,9.778,0.268,0,0,0,3136,2021-01-15 19:05:57:988
-0.163,9.778,0.268,0,0,0,3146,2021-01-15 19:05:57:998
-0.163,9.778,0.268,0,0,0,3155,2021-01-15 19:05:58:007
-0.163,9.778,0.268,0,0,0,3166,2021-01-15 19:05:58:018
-0.163,9.778,0.268,0,0,0,3175,2021-01-15 19:05:58:027
-0.163,9.778,0.268,0,0,0,3186,2021-01-15 19:05:58:038
-0.153,9.771,0.273,0,0,0,3196,2021-01-15 19:05:58:048
-0.153,9.771,0.273,0,0,0,3206,2021-01-15 19:05:58:058
-0.153,9.771,0.273,0,0,0,3216,2021-01-15 19:05:58:068
-0.153,9.771,0.273,0,0,0,3226,2021-01-15 19:05:58:078
-0.153,9.771,0.273,0,0,0,3236,2021-01-15 19:05:58:088
-0.153,9.771,0.273,0,0,0,3246,2021-01-15 19:05:58:098
-0.158,9.778,0.278,0,0,0,3256,2021-01-15 19:05:58:108
-0.158,9.778,0.278,0,0,0,3266,2021-01-15 19:05:58:118
-0.158,9.778,0.278,0,0,0,3276,2021-01-15 19:05:58:128
-0.158,9.778,0.278,0,0,0,3286,2021-01-15 19:05:58:138
-0.158,9.778,0.278,0,0,0,3295,2021-01-15 19:05:58:147
-0.158,9.778,0.278,0,0,0,3306,2021-01-15 19:05:58:158
-0.172,9.778,0.273,0,0,0,3316,2021-01-15 19:05:58:168
-0.172,9.778,0.273,0,0,0,3326,2021-01-15 19:05:58:178
-0.172,9.778,0.273,0,0,0,3335,2021-01-15 19:05:58:187
-0.172,9.778,0.273,0,0,0,3345,2021-01-15 19:05:58:197
-0.172,9.778,0.273,0,0,0,3356,2021-01-15 19:05:58:208
-0.172,9.778,0.273,0,0,0,3366,2021-01-15 19:05:58:218
-0.148,9.788,0.263,0,0,0,3375,2021-01-15 19:05:58:227
-0.148,9.788,0.263,0,0,0,3386,2021-01-15 19:05:58:238
-0.148,9.788,0.263,0,0,0,3396,2021-01-15 19:05:58:248
-0.148,9.788,0.263,0,0,0,3405,2021-01-15 19:05:58:257
-0.148,9.788,0.263,0,0,0,3416,2021-01-15 19:05:58:268
-0.148,9.788,0.263,0,0,0,3425,2021-01-15 19:05:58:277
-0.148,9.769,0.259,0,0,0,3436,2021-01-15 19:05:58:288
-0.148,9.769,0.259,0,0,0,3445,2021-01-15 19:05:58:297
-0.148,9.769,0.259,0,0,0,3456,2021-01-15 19:05:58:308
-0.148,9.769,0.259,0,0,0,3466,2021-01-15 19:05:58:318
-0.148,9.769,0.259,0,0,0,3476,2021-01-15 19:05:58:328
-0.148,9.769,0.259,0,0,0,3486,2021-01-15 19:05:58:338
-0.168,9.771,0.259,0,0,0,3495,2021-01-15 19:05:58:347
-0.168,9.771,0.259,0,0,0,3506,2021-01-15 19:05:58:358
-0.168,9.771,0.259,0,0,0,3516,2021-01-15 19:05:58:368
-0.168,9.771,0.259,0,0,0,3525,2021-01-15 19:05:58:377
-0.168,9.771,0.259,0,0,0,3536,2021-01-15 19:05:58:388
-0.168,9.771,0.259,0,0,0,3546,2021-01-15 19:05:58:398
-0.16,9.759,0.268,0,0,0,3556,2021-01-15 19:05:58:408
-0.16,9.759,0.268,0,0,0,3566,2021-01-15 19:05:58:418
-0.16,9.759,0.268,0,0,0,3576,2021-01-15 19:05:58:428
-0.16,9.759,0.268,0,0,0,3586,2021-01-15 19:05:58:438
-0.16,9.759,0.268,0,0,0,3596,2021-01-15 19:05:58:448
-0.16,9.759,0.268,0,0,0,3606,2021-01-15 19:05:58:458
-0.175,9.783,0.261,0,0,0,3616,2021-01-15 19:05:58:468
-0.175,9.783,0.261,0,0,0,3626,2021-01-15 19:05:58:478
-0.175,9.783,0.261,0,0,0,3635,2021-01-15 19:05:58:487
-0.175,9.783,0.261,0,0,0,3646,2021-01-15 19:05:58:498
-0.175,9.783,0.261,0,0,0,3656,2021-01-15 19:05:58:508
-0.175,9.783,0.261,0,0,0,3665,2021-01-15 19:05:58:517
-0.148,9.771,0.256,0,0,0,3676,2021-01-15 19:05:58:528
-0.148,9.771,0.256,0,0,0,3685,2021-01-15 19:05:58:537
-0.148,9.771,0.256,0,0,0,3696,2021-01-15 19:05:58:548
-0.148,9.771,0.256,0,0,0,3705,2021-01-15 19:05:58:557
-0.148,9.771,0.256,0,0,0,3716,2021-01-15 19:05:58:568
-0.148,9.771,0.256,0,0,0,3726,2021-01-15 19:05:58:578
-0.16,9.773,0.271,0,0,0,3735,2021-01-15 19:05:58:587
-0.16,9.773,0.271,0,0,0,3746,2021-01-15 19:05:58:598
-0.16,9.773,0.271,0,0,0,3756,2021-01-15 19:05:58:608
-0.16,9.773,0.271,0,0,0,3766,2021-01-15 19:05:58:618
-0.16,9.773,0.271,0,0,0,3775,2021-01-15 19:05:58:627
-0.16,9.773,0.271,0,0,0,3786,2021-01-15 19:05:58:638
-0.17,9.788,0.273,0,0,0,3796,2021-01-15 19:05:58:648
-0.17,9.788,0.273,0,0,0,3805,2021-01-15 19:05:58:657
-0.17,9.788,0.273,0,-0.001,-0.001,3816,2021-01-15 19:05:58:668
-0.17,9.788,0.273,0,-0.001,-0.001,3826,2021-01-15 19:05:58:678
-0.17,9.788,0.273,0,-0.001,-0.001,3836,2021-01-15 19:05:58:688
-0.17,9.788,0.273,0,-0.001,-0.001,3846,2021-01-15 19:05:58:698
-0.165,9.776,0.268,0,-0.001,-0.001,3856,2021-01-15 19:05:58:708
-0.165,9.776,0.268,0,-0.001,-0.001,3866,2021-01-15 19:05:58:718
-0.165,9.776,0.268,0,-0.001,-0.001,3875,2021-01-15 19:05:58:727
-0.165,9.776,0.268,0,-0.001,-0.001,3886,2021-01-15 19:05:58:738
-0.165,9.776,0.268,0,-0.001,-0.001,3896,2021-01-15 19:05:58:748
-0.165,9.776,0.268,0,-0.001,-0.001,3906,2021-01-15 19:05:58:758
-0.151,9.773,0.263,0,-0.001,-0.001,3915,2021-01-15 19:05:58:767
-0.151,9.773,0.263,0,-0.001,-0.001,3927,2021-01-15 19:05:58:779
-0.151,9.773,0.263,0,0,0,3936,2021-01-15 19:05:58:788
-0.151,9.773,0.263,0,0,0,3946,2021-01-15 19:05:58:798
-0.151,9.773,0.263,0,0,0,3956,2021-01-15 19:05:58:808
-0.151,9.773,0.263,0,0,0,3966,2021-01-15 19:05:58:818
-0.163,9.79,0.271,0,0,0,3975,2021-01-15 19:05:58:827
-0.163,9.79,0.271,0,0,0,3986,2021-01-15 19:05:58:838
-0.163,9.79,0.271,0,0,0,3995,2021-01-15 19:05:58:847
-0.163,9.79,0.271,0,0,0,4006,2021-01-15 19:05:58:858
-0.163,9.79,0.271,0,0,0,4016,2021-01-15 19:05:58:868
-0.163,9.79,0.271,0,0,0,4026,2021-01-15 19:05:58:878
-0.153,9.771,0.275,0,0,0,4035,2021-01-15 19:05:58:887
-0.153,9.771,0.275,0,0,0,4046,2021-01-15 19:05:58:898
-0.153,9.771,0.275,0,-0.001,0,4056,2021-01-15 19:05:58:908
-0.153,9.771,0.275,0,-0.001,0,4066,2021-01-15 19:05:58:918
-0.153,9.771,0.275,0,-0.001,0,4076,2021-01-15 19:05:58:928
-0.153,9.771,0.275,0,-0.001,0,4086,2021-01-15 19:05:58:938
-0.165,9.778,0.263,0,-0.001,0,4095,2021-01-15 19:05:58:947
-0.165,9.778,0.263,0,-0.001,0,4106,2021-01-15 19:05:58:958
-0.165,9.778,0.263,0,-0.001,0,4116,2021-01-15 19:05:58:968
-0.165,9.778,0.263,0,-0.001,0,4125,2021-01-15 19:05:58:977
-0.165,9.778,0.263,0,-0.001,0,4135,2021-01-15 19:05:58:987
-0.165,9.778,0.263,0,-0.001,0,4146,2021-01-15 19:05:58:998
-0.163,9.771,0.29,0,-0.001,0,4156,2021-01-15 19:05:59:008
-0.163,9.771,0.29,0,-0.001,0,4166,2021-01-15 19:05:59:018
-0.163,9.771,0.29,0,0,0,4176,2021-01-15 19:05:59:028
-0.163,9.771,0.29,0,0,0,4186,2021-01-15 19:05:59:038
-0.163,9.771,0.29,0,0,0,4196,2021-01-15 19:05:59:048
-0.163,9.771,0.29,0,0,0,4206,2021-01-15 19:05:59:058
-0.163,9.785,0.275,0,0,0,4216,2021-01-15 19:05:59:068
-0.163,9.785,0.275,0,0,0,4226,2021-01-15 19:05:59:078
-0.163,9.785,0.275,0,0,0,4237,2021-01-15 19:05:59:089
-0.163,9.785,0.275,0,0,0,4246,2021-01-15 19:05:59:098
-0.163,9.785,0.275,0,0,0,4256,2021-01-15 19:05:59:108
-0.163,9.785,0.275,0,0,0,4266,2021-01-15 19:05:59:118
-0.158,9.766,0.273,0,0,0,4276,2021-01-15 19:05:59:128
-0.158,9.766,0.273,0,0,0,4286,2021-01-15 19:05:59:138
-0.158,9.766,0.273,0,0,0,4296,2021-01-15 19:05:59:148
-0.158,9.766,0.273,0,0,0,4306,2021-01-15 19:05:59:158
-0.158,9.766,0.273,0,0,0,4315,2021-01-15 19:05:59:167
-0.158,9.766,0.273,0,0,0,4325,2021-01-15 19:05:59:177
-0.163,9.783,0.261,0,0,0,4336,2021-01-15 19:05:59:188
-0.163,9.783,0.261,0,0,0,4346,2021-01-15 19:05:59:198
-0.163,9.783,0.261,0,0,0,4356,2021-01-15 19:05:59:208
-0.163,9.783,0.261,0,0,0,4366,2021-01-15 19:05:59:218
-0.163,9.783,0.261,0,0,0,4375,2021-01-15 19:05:59:227
-0.163,9.783,0.261,0,0,0,4386,2021-01-15 19:05:59:238
-0.16,9.764,0.266,0,0,0,4396,2021-01-15 19:05:59:248
-0.16,9.764,0.266,0,0,0,4406,2021-01-15 19:05:59:258
-0.16,9.764,0.266,0,0,0,4415,2021-01-15 19:05:59:267
-0.16,9.764,0.266,0,0,0,4426,2021-01-15 19:05:59:278
-0.16,9.764,0.266,0,0,0,4436,2021-01-15 19:05:59:288
-0.16,9.764,0.266,0,0,0,4446,2021-01-15 19:05:59:298
-0.156,9.783,0.263,0,0,0,4455,2021-01-15 19:05:59:307
-0.156,9.783,0.263,0,0,0,4466,2021-01-15 19:05:59:318
-0.156,9.783,0.263,0,0,0,4476,2021-01-15 19:05:59:328
-0.156,9.783,0.263,0,0,0,4486,2021-01-15 19:05:59:338
-0.156,9.783,0.263,0,0,0,4495,2021-01-15 19:05:59:347
-0.156,9.783,0.263,0,0,0,4506,2021-01-15 19:05:59:358
-0.168,9.773,0.261,0,0,0,4516,2021-01-15 19:05:59:368
-0.168,9.773,0.261,0,0,0,4526,2021-01-15 19:05:59:378
-0.168,9.773,0.261,0,0,0,4536,2021-01-15 19:05:59:388
-0.168,9.773,0.261,0,0,0,4546,2021-01-15 19:05:59:398
-0.168,9.773,0.261,0,0,0,4555,2021-01-15 19:05:59:407
-0.168,9.773,0.261,0,0,0,4566,2021-01-15 19:05:59:418
-0.17,9.769,0.261,0,0,0,4576,2021-01-15 19:05:59:428
-0.17,9.769,0.261,0,0,0,4595,2021-01-15 19:05:59:447
-0.17,9.769,0.261,0,0,0,4596,2021-01-15 19:05:59:448
-0.17,9.769,0.261,0,0,0,4606,2021-01-15 19:05:59:458
-0.17,9.769,0.261,0,0,0,4616,2021-01-15 19:05:59:468
-0.17,9.769,0.261,0,0,0,4626,2021-01-15 19:05:59:478
-0.16,9.79,0.271,0,0,0,4635,2021-01-15 19:05:59:487
-0.16,9.79,0.271,0,0,0,4648,2021-01-15 19:05:59:500
-0.16,9.79,0.271,0,0,0,4656,2021-01-15 19:05:59:508
-0.16,9.79,0.271,0,0,0,4666,2021-01-15 19:05:59:518
-0.16,9.79,0.271,0,0,0,4676,2021-01-15 19:05:59:528
-0.16,9.79,0.271,0,0,0,4686,2021-01-15 19:05:59:538
-0.16,9.771,0.275,0,0,0,4695,2021-01-15 19:05:59:547
-0.16,9.771,0.275,0,0,0,4706,2021-01-15 19:05:59:558
-0.16,9.771,0.275,0,0,0,4716,2021-01-15 19:05:59:568
-0.16,9.771,0.275,0,0,0,4726,2021-01-15 19:05:59:578
-0.16,9.771,0.275,0,0,0,4736,2021-01-15 19:05:59:588
-0.16,9.771,0.275,0,0,0,4746,2021-01-15 19:05:59:598
-0.163,9.773,0.259,0,0,0,4756,2021-01-15 19:05:59:608
-0.163,9.773,0.259,0,0,0,4766,2021-01-15 19:05:59:618
-0.163,9.773,0.259,0,0.001,0,4776,2021-01-15 19:05:59:628
-0.163,9.773,0.259,0,0.001,0,4786,2021-01-15 19:05:59:638
-0.163,9.773,0.259,0,0.001,0,4795,2021-01-15 19:05:59:647
-0.163,9.773,0.259,0,0.001,0,4806,2021-01-15 19:05:59:658
-0.17,9.788,0.275,0,0.001,0,4816,2021-01-15 19:05:59:668
-0.17,9.788,0.275,0,0.001,0,4826,2021-01-15 19:05:59:678
-0.17,9.788,0.275,0,0.001,0,4835,2021-01-15 19:05:59:687
-0.17,9.788,0.275,0,0.001,0,4846,2021-01-15 19:05:59:698
-0.17,9.788,0.275,0,0.001,0,4856,2021-01-15 19:05:59:708
-0.17,9.788,0.275,0,0.001,0,4866,2021-01-15 19:05:59:718
-0.16,9.783,0.28,0,0.001,0,4876,2021-01-15 19:05:59:728
-0.16,9.783,0.28,0,0.001,0,4888,2021-01-15 19:05:59:740
-0.16,9.783,0.28,0,0,0,4897,2021-01-15 19:05:59:749
-0.16,9.783,0.28,0,0,0,4907,2021-01-15 19:05:59:759
-0.16,9.783,0.28,0,0,0,4916,2021-01-15 19:05:59:768
-0.16,9.783,0.28,0,0,0,4927,2021-01-15 19:05:59:779
-0.172,9.79,0.271,0,0,0,4936,2021-01-15 19:05:59:788
-0.172,9.79,0.271,0,0,0,4945,2021-01-15 19:05:59:797
-0.172,9.79,0.271,0,0,0,4956,2021-01-15 19:05:59:808
-0.172,9.79,0.271,0,0,0,4966,2021-01-15 19:05:59:818
-0.172,9.79,0.271,0,0,0,4976,2021-01-15 19:05:59:828
-0.172,9.79,0.271,0,0,0,4986,2021-01-15 19:05:59:838
-0.148,9.776,0.278,0,0,0,4996,2021-01-15 19:05:59:848
-0.148,9.776,0.278,0,0,0,5006,2021-01-15 19:05:59:858
-0.148,9.776,0.278,0,0,0,5017,2021-01-15 19:05:59:869
-0.148,9.776,0.278,0,0,0,5026,2021-01-15 19:05:59:878
-0.148,9.776,0.278,0,0,0,5036,2021-01-15 19:05:59:888
-0.148,9.776,0.278,0,0,0,5046,2021-01-15 19:05:59:898
-0.158,9.776,0.285,0,0,0,5056,2021-01-15 19:05:59:908
-0.158,9.776,0.285,0,0,0,5065,2021-01-15 19:05:59:917
-0.158,9.776,0.285,0,0,0,5076,2021-01-15 19:05:59:928
-0.158,9.776,0.285,0,0,0,5086,2021-01-15 19:05:59:938
-0.158,9.776,0.285,0,0,0,5095,2021-01-15 19:05:59:947
-0.158,9.776,0.285,0,0,0,5106,2021-01-15 19:05:59:958
-0.165,9.766,0.278,0,0,0,5116,2021-01-15 19:05:59:968
-0.165,9.766,0.278,0,0,0,5126,2021-01-15 19:05:59:978
-0.165,9.766,0.278,0,0,0,5136,2021-01-15 19:05:59:988
-0.165,9.766,0.278,0,0,0,5146,2021-01-15 19:05:59:998
-0.165,9.766,0.278,0,0,0,5156,2021-01-15 19:06:00:008
-0.165,9.766,0.278,0,0,0,5166,2021-01-15 19:06:00:018
-0.172,9.773,0.283,0,0,0,5175,2021-01-15 19:06:00:027
-0.172,9.773,0.283,0,0,0,5186,2021-01-15 19:06:00:038
-0.172,9.773,0.283,0,0,0,5196,2021-01-15 19:06:00:048
-0.172,9.773,0.283,0,0,0,5206,2021-01-15 19:06:00:058
-0.172,9.773,0.283,0,0,0,5216,2021-01-15 19:06:00:068
-0.172,9.773,0.283,0,0,0,5226,2021-01-15 19:06:00:078
-0.165,9.795,0.292,0,0,0,5236,2021-01-15 19:06:00:088
-0.165,9.795,0.292,0,0,0,5246,2021-01-15 19:06:00:098
-0.165,9.795,0.292,0,-0.001,0,5256,2021-01-15 19:06:00:108
-0.165,9.795,0.292,0,-0.001,0,5266,2021-01-15 19:06:00:118
-0.165,9.795,0.292,0,-0.001,0,5277,2021-01-15 19:06:00:129
-0.165,9.795,0.292,0,-0.001,0,5286,2021-01-15 19:06:00:138
-0.172,9.797,0.273,0,-0.001,0,5296,2021-01-15 19:06:00:148
-0.172,9.797,0.273,0,-0.001,0,5306,2021-01-15 19:06:00:158
-0.172,9.797,0.273,0,-0.001,0,5316,2021-01-15 19:06:00:168
-0.172,9.797,0.273,0,-0.001,0,5325,2021-01-15 19:06:00:177
-0.172,9.797,0.273,0,-0.001,0,5336,2021-01-15 19:06:00:188
-0.172,9.797,0.273,0,-0.001,0,5346,2021-01-15 19:06:00:198
-0.175,9.776,0.259,0,-0.001,0,5356,2021-01-15 19:06:00:208
-0.175,9.776,0.259,0,-0.001,0,5366,2021-01-15 19:06:00:218
-0.175,9.776,0.259,0,0,0,5376,2021-01-15 19:06:00:228
-0.175,9.776,0.259,0,0,0,5385,2021-01-15 19:06:00:237
-0.175,9.776,0.259,0,0,0,5396,2021-01-15 19:06:00:248
-0.175,9.776,0.259,0,0,0,5406,2021-01-15 19:06:00:258
-0.18,9.776,0.28,0,0,0,5416,2021-01-15 19:06:00:268
-0.18,9.776,0.28,0,0,0,5426,2021-01-15 19:06:00:278
-0.18,9.776,0.28,0,0,0,5436,2021-01-15 19:06:00:288
-0.18,9.776,0.28,0,0,0,5445,2021-01-15 19:06:00:297
-0.18,9.776,0.28,0,0,0,5456,2021-01-15 19:06:00:308
-0.18,9.776,0.28,0,0,0,5466,2021-01-15 19:06:00:318
-0.168,9.781,0.273,0,0,0,5477,2021-01-15 19:06:00:329
-0.168,9.781,0.273,0,0,0,5486,2021-01-15 19:06:00:338
-0.168,9.781,0.273,0,0,0,5496,2021-01-15 19:06:00:348
-0.168,9.781,0.273,0,0,0,5507,2021-01-15 19:06:00:359
-0.168,9.781,0.273,0,0,0,5516,2021-01-15 19:06:00:368
-0.168,9.781,0.273,0,0,0,5526,2021-01-15 19:06:00:378
-0.172,9.783,0.28,0,0,0,5536,2021-01-15 19:06:00:388
-0.172,9.783,0.28,0,0,0,5547,2021-01-15 19:06:00:399
-0.172,9.783,0.28,0,0,0,5556,2021-01-15 19:06:00:408
-0.172,9.783,0.28,0,0,0,5566,2021-01-15 19:06:00:418
-0.172,9.783,0.28,0,0,0,5576,2021-01-15 19:06:00:428
-0.172,9.783,0.28,0,0,0,5586,2021-01-15 19:06:00:438
-0.163,9.793,0.278,0,0,0,5596,2021-01-15 19:06:00:448
-0.163,9.793,0.278,0,0,0,5605,2021-01-15 19:06:00:457
-0.163,9.793,0.278,0,0,0,5616,2021-01-15 19:06:00:468
-0.163,9.793,0.278,0,0,0,5627,2021-01-15 19:06:00:479
-0.163,9.793,0.278,0,0,0,5636,2021-01-15 19:06:00:488
-0.163,9.793,0.278,0,0,0,5645,2021-01-15 19:06:00:497
-0.17,9.776,0.285,0,0,0,5656,2021-01-15 19:06:00:508
-0.17,9.776,0.285,0,0,0,5665,2021-01-15 19:06:00:517
-0.17,9.776,0.285,0,0,0,5676,2021-01-15 19:06:00:528
-0.17,9.776,0.285,0,0,0,5686,2021-01-15 19:06:00:538
-0.17,9.776,0.285,0,0,0,5695,2021-01-15 19:06:00:547
-0.17,9.776,0.285,0,0,0,5706,2021-01-15 19:06:00:558
-0.151,9.771,0.283,0,0,0,5716,2021-01-15 19:06:00:568
-0.151,9.771,0.283,0,0,0,5725,2021-01-15 19:06:00:577
-0.151,9.771,0.283,0,0,0,5735,2021-01-15 19:06:00:587
-0.151,9.771,0.283,0,0,0,5746,2021-01-15 19:06:00:598
-0.151,9.771,0.283,0,0,0,5756,2021-01-15 19:06:00:608
-0.151,9.771,0.283,0,0,0,5765,2021-01-15 19:06:00:617
-0.163,9.761,0.271,0,0,0,5776,2021-01-15 19:06:00:628
-0.163,9.761,0.271,0,0,0,5786,2021-01-15 19:06:00:638
-0.163,9.761,0.271,0,0,0,5796,2021-01-15 19:06:00:648
-0.163,9.761,0.271,0,0,0,5805,2021-01-15 19:06:00:657
-0.163,9.761,0.271,0,0,0,5816,2021-01-15 19:06:00:668
-0.163,9.761,0.271,0,0,0,5825,2021-01-15 19:06:00:677
-0.17,9.776,0.278,0,0,0,5836,2021-01-15 19:06:00:688
-0.17,9.776,0.278,0,0,0,5846,2021-01-15 19:06:00:698
-0.17,9.776,0.278,0,-0.001,0,5855,2021-01-15 19:06:00:707
-0.17,9.776,0.278,0,-0.001,0,5866,2021-01-15 19:06:00:718
-0.17,9.776,0.278,0,-0.001,0,5876,2021-01-15 19:06:00:728
-0.17,9.776,0.278,0,-0.001,0,5886,2021-01-15 19:06:00:738
-0.146,9.761,0.256,0,-0.001,0,5896,2021-01-15 19:06:00:748
-0.146,9.761,0.256,0,-0.001,0,5906,2021-01-15 19:06:00:758
-0.146,9.761,0.256,0,-0.001,0,5916,2021-01-15 19:06:00:768
-0.146,9.761,0.256,0,-0.001,0,5925,2021-01-15 19:06:00:777
-0.146,9.761,0.256,0,-0.001,0,5936,2021-01-15 19:06:00:788
-0.146,9.761,0.256,0,-0.001,0,5946,2021-01-15 19:06:00:798
-0.177,9.771,0.259,0,-0.001,0,5956,2021-01-15 19:06:00:808
-0.177,9.771,0.259,0,-0.001,0,5966,2021-01-15 19:06:00:818
-0.177,9.771,0.259,0,-0.001,0,5975,2021-01-15 19:06:00:827
-0.177,9.771,0.259,0,-0.001,0,5986,2021-01-15 19:06:00:838
-0.177,9.771,0.259,0,-0.001,0,5995,2021-01-15 19:06:00:847
-0.177,9.771,0.259,0,-0.001,0,6006,2021-01-15 19:06:00:858
-0.144,9.781,0.271,0,-0.001,0,6016,2021-01-15 19:06:00:868
-0.144,9.781,0.271,0,-0.001,0,6026,2021-01-15 19:06:00:878
-0.144,9.781,0.271,0,-0.001,0,6036,2021-01-15 19:06:00:888
-0.144,9.781,0.271,0,-0.001,0,6046,2021-01-15 19:06:00:898
-0.144,9.781,0.271,0,-0.001,0,6056,2021-01-15 19:06:00:908
-0.144,9.781,0.271,0,-0.001,0,6066,2021-01-15 19:06:00:918
-0.16,9.79,0.256,0,-0.001,0,6076,2021-01-15 19:06:00:928
-0.16,9.79,0.256,0,-0.001,0,6085,2021-01-15 19:06:00:937
-0.16,9.79,0.256,0,0,0,6096,2021-01-15 19:06:00:948
-0.16,9.79,0.256,0,0,0,6105,2021-01-15 19:06:00:957
-0.16,9.79,0.256,0,0,0,6115,2021-01-15 19:06:00:967
-0.16,9.79,0.256,0,0,0,6126,2021-01-15 19:06:00:978
-0.163,9.764,0.28,0,0,0,6136,2021-01-15 19:06:00:988
-0.163,9.764,0.28,0,0,0,6145,2021-01-15 19:06:00:997
-0.163,9.764,0.28,0,0,0,6156,2021-01-15 19:06:01:008
-0.163,9.764,0.28,0,0,0,6166,2021-01-15 19:06:01:018
-0.163,9.764,0.28,0,0,0,6176,2021-01-15 19:06:01:028
-0.163,9.764,0.28,0,0,0,6185,2021-01-15 19:06:01:037
-0.16,9.766,0.268,0,0,0,6196,2021-01-15 19:06:01:048
-0.16,9.766,0.268,0,0,0,6206,2021-01-15 19:06:01:058
-0.16,9.766,0.268,0,0,0,6216,2021-01-15 19:06:01:068
-0.16,9.766,0.268,0,0,0,6226,2021-01-15 19:06:01:078
-0.16,9.766,0.268,0,0,0,6236,2021-01-15 19:06:01:088
-0.16,9.766,0.268,0,0,0,6245,2021-01-15 19:06:01:097
-0.16,9.793,0.266,0,0,0,6256,2021-01-15 19:06:01:108
-0.16,9.793,0.266,0,0,0,6266,2021-01-15 19:06:01:118
-0.16,9.793,0.266,0,0,0,6276,2021-01-15 19:06:01:128
-0.16,9.793,0.266,0,0,0,6286,2021-01-15 19:06:01:138
-0.16,9.793,0.266,0,0,0,6296,2021-01-15 19:06:01:148
-0.16,9.793,0.266,0,0,0,6306,2021-01-15 19:06:01:158
-0.158,9.776,0.266,0,0,0,6316,2021-01-15 19:06:01:168
-0.158,9.776,0.266,0,0,0,6326,2021-01-15 19:06:01:178
-0.158,9.776,0.266,0,0,0,6336,2021-01-15 19:06:01:188
-0.158,9.776,0.266,0,0,0,6346,2021-01-15 19:06:01:198
-0.158,9.776,0.266,0,0,0,6356,2021-01-15 19:06:01:208
-0.158,9.776,0.266,0,0,0,6366,2021-01-15 19:06:01:218
-0.158,9.771,0.278,0,0,0,6376,2021-01-15 19:06:01:228
-0.158,9.771,0.278,0,0,0,6385,2021-01-15 19:06:01:237
-0.158,9.771,0.278,0,0,0,6396,2021-01-15 19:06:01:248
-0.158,9.771,0.278,0,0,0,6406,2021-01-15 19:06:01:258
-0.158,9.771,0.278,0,0,0,6416,2021-01-15 19:06:01:268
-0.158,9.771,0.278,0,0,0,6426,2021-01-15 19:06:01:278
-0.156,9.783,0.268,0,0,0,6436,2021-01-15 19:06:01:288
-0.156,9.783,0.268,0,0,0,6446,2021-01-15 19:06:01:298
-0.156,9.783,0.268,0,-0.001,0,6456,2021-01-15 19:06:01:308
-0.156,9.783,0.268,0,-0.001,0,6466,2021-01-15 19:06:01:318
-0.156,9.783,0.268,0,-0.001,0,6476,2021-01-15 19:06:01:328
-0.156,9.783,0.268,0,-0.001,0,6486,2021-01-15 19:06:01:338
-0.17,9.773,0.263,0,-0.001,0,6496,2021-01-15 19:06:01:348
-0.17,9.773,0.263,0,-0.001,0,6506,2021-01-15 19:06:01:358
-0.17,9.773,0.263,0,-0.001,0,6516,2021-01-15 19:06:01:368
-0.17,9.773,0.263,0,-0.001,0,6525,2021-01-15 19:06:01:377
-0.17,9.773,0.263,0,-0.001,0,6535,2021-01-15 19:06:01:387
-0.17,9.773,0.263,0,-0.001,0,6546,2021-01-15 19:06:01:398
-0.153,9.776,0.268,0,-0.001,0,6556,2021-01-15 19:06:01:408
-0.153,9.776,0.268,0,-0.001,0,6565,2021-01-15 19:06:01:417
-0.153,9.776,0.268,0,0,0,6576,2021-01-15 19:06:01:428
-0.153,9.776,0.268,0,0,0,6586,2021-01-15 19:06:01:438
-0.153,9.776,0.268,0,0,0,6596,2021-01-15 19:06:01:448
-0.153,9.776,0.268,0,0,0,6606,2021-01-15 19:06:01:458
-0.163,9.776,0.266,0,0,0,6616,2021-01-15 19:06:01:468
-0.163,9.776,0.266,0,0,0,6626,2021-01-15 19:06:01:478
-0.163,9.776,0.266,0,0,0,6636,2021-01-15 19:06:01:488
-0.163,9.776,0.266,0,0,0,6646,2021-01-15 19:06:01:498
-0.163,9.776,0.266,0,0,0,6656,2021-01-15 19:06:01:508
-0.163,9.776,0.266,0,0,0,6666,2021-01-15 19:06:01:518
-0.165,9.805,0.268,0,0,0,6675,2021-01-15 19:06:01:527
-0.165,9.805,0.268,0,0,0,6686,2021-01-15 19:06:01:538
-0.165,9.805,0.268,0,0,0,6696,2021-01-15 19:06:01:548
-0.165,9.805,0.268,0,0,0,6705,2021-01-15 19:06:01:557
-0.165,9.805,0.268,0,0,0,6716,2021-01-15 19:06:01:568
-0.165,9.805,0.268,0,0,0,6726,2021-01-15 19:06:01:578
-0.182,9.783,0.278,0,0,0,6735,2021-01-15 19:06:01:587
-0.182,9.783,0.278,0,0,0,6746,2021-01-15 19:06:01:598
-0.182,9.783,0.278,0,0,0,6756,2021-01-15 19:06:01:608
-0.182,9.783,0.278,0,0,0,6765,2021-01-15 19:06:01:617
-0.182,9.783,0.278,0,0,0,6776,2021-01-15 19:06:01:628
-0.182,9.783,0.278,0,0,0,6786,2021-01-15 19:06:01:638
-0.177,9.79,0.268,0,0,0,6796,2021-01-15 19:06:01:648
-0.177,9.79,0.268,0,0,0,6806,2021-01-15 19:06:01:658
-0.177,9.79,0.268,0,-0.001,0,6818,2021-01-15 19:06:01:670
-0.177,9.79,0.268,0,-0.001,0,6827,2021-01-15 19:06:01:679
-0.177,9.79,0.268,0,-0.001,0,6838,2021-01-15 19:06:01:690
-0.177,9.79,0.268,0,-0.001,0,6846,2021-01-15 19:06:01:698
-0.18,9.781,0.29,0,-0.001,0,6856,2021-01-15 19:06:01:708
-0.18,9.781,0.29,0,-0.001,0,6865,2021-01-15 19:06:01:717
-0.18,9.781,0.29,0,-0.001,0,6876,2021-01-15 19:06:01:728
-0.18,9.781,0.29,0,-0.001,0,6886,2021-01-15 19:06:01:738
-0.18,9.781,0.29,0,-0.001,0,6896,2021-01-15 19:06:01:748
-0.18,9.781,0.29,0,-0.001,0,6906,2021-01-15 19:06:01:758
-0.163,9.766,0.287,0,-0.001,0,6919,2021-01-15 19:06:01:771
-0.163,9.766,0.287,0,-0.001,0,6940,2021-01-15 19:06:01:792
-0.163,9.766,0.287,0,-0.001,0,6941,2021-01-15 19:06:01:793
-0.163,9.766,0.287,0,-0.001,0,6946,2021-01-15 19:06:01:798
-0.163,9.766,0.287,0,-0.001,0,6956,2021-01-15 19:06:01:808
-0.163,9.766,0.287,0,-0.001,0,6966,2021-01-15 19:06:01:818
-0.156,9.79,0.294,0,-0.001,0,6982,2021-01-15 19:06:01:834
-0.156,9.79,0.294,0,-0.001,0,6986,2021-01-15 19:06:01:838
-0.156,9.79,0.294,0,-0.001,0,6996,2021-01-15 19:06:01:848
-0.156,9.79,0.294,0,-0.001,0,7006,2021-01-15 19:06:01:858
-0.156,9.79,0.294,0,-0.001,0,7016,2021-01-15 19:06:01:868
-0.156,9.79,0.294,0,-0.001,0,7026,2021-01-15 19:06:01:878
-0.17,9.776,0.292,0,-0.001,0,7044,2021-01-15 19:06:01:896
-0.17,9.776,0.292,0,-0.001,0,7046,2021-01-15 19:06:01:898
-0.17,9.776,0.292,0,-0.001,0,7056,2021-01-15 19:06:01:908
-0.17,9.776,0.292,0,-0.001,0,7066,2021-01-15 19:06:01:918
-0.17,9.776,0.292,0,-0.001,0,7076,2021-01-15 19:06:01:928
-0.17,9.776,0.292,0,-0.001,0,7085,2021-01-15 19:06:01:937
-0.168,9.773,0.259,0,-0.001,0,7097,2021-01-15 19:06:01:949
-0.168,9.773,0.259,0,-0.001,0,7108,2021-01-15 19:06:01:960
-0.168,9.773,0.259,0,-0.001,0,7116,2021-01-15 19:06:01:968
-0.168,9.773,0.259,0,-0.001,0,7127,2021-01-15 19:06:01:979
-0.168,9.773,0.259,0,-0.001,0,7136,2021-01-15 19:06:01:988
-0.168,9.773,0.259,0,-0.001,0,7146,2021-01-15 19:06:01:998
-0.168,9.788,0.261,0,-0.001,0,7156,2021-01-15 19:06:02:008
-0.168,9.788,0.261,0,-0.001,0,7174,2021-01-15 19:06:02:026
-0.168,9.788,0.261,0,-0.001,0,7175,2021-01-15 19:06:02:027
-0.168,9.788,0.261,0,-0.001,0,7186,2021-01-15 19:06:02:038
-0.168,9.788,0.261,0,-0.001,0,7196,2021-01-15 19:06:02:048
-0.168,9.788,0.261,0,-0.001,0,7206,2021-01-15 19:06:02:058
-0.16,9.761,0.273,0,-0.001,0,7216,2021-01-15 19:06:02:068
-0.16,9.761,0.273,0,-0.001,0,7226,2021-01-15 19:06:02:078
-0.16,9.761,0.273,0,-0.001,0,7236,2021-01-15 19:06:02:088
-0.16,9.761,0.273,0,-0.001,0,7247,2021-01-15 19:06:02:099
-0.16,9.761,0.273,0,-0.001,0,7255,2021-01-15 19:06:02:107
-0.16,9.761,0.273,0,-0.001,0,7266,2021-01-15 19:06:02:118
-0.18,9.783,0.283,0,-0.001,0,7276,2021-01-15 19:06:02:128
-0.18,9.783,0.283,0,-0.001,0,7286,2021-01-15 19:06:02:138
-0.18,9.783,0.283,0,0,0,7296,2021-01-15 19:06:02:148
-0.18,9.783,0.283,0,0,0,7309,2021-01-15 19:06:02:161
-0.18,9.783,0.283,0,0,0,7316,2021-01-15 19:06:02:168
-0.18,9.783,0.283,0,0,0,7326,2021-01-15 19:06:02:178
-0.148,9.795,0.283,0,0,0,7336,2021-01-15 19:06:02:188
-0.148,9.795,0.283,0,0,0,7346,2021-01-15 19:06:02:198
-0.148,9.795,0.283,0,0,0,7356,2021-01-15 19:06:02:208
-0.148,9.795,0.283,0,0,0,7367,2021-01-15 19:06:02:219
-0.148,9.795,0.283,0,0,0,7376,2021-01-15 19:06:02:228
-0.148,9.795,0.283,0,0,0,7385,2021-01-15 19:06:02:237
-0.165,9.781,0.263,0,0,0,7395,2021-01-15 19:06:02:247
-0.165,9.781,0.263,0,0,0,7406,2021-01-15 19:06:02:258
-0.165,9.781,0.263,0,0,0,7416,2021-01-15 19:06:02:268
-0.165,9.781,0.263,0,0,0,7426,2021-01-15 19:06:02:278
-0.165,9.781,0.263,0,0,0,7435,2021-01-15 19:06:02:287
-0.165,9.781,0.263,0,0,0,7446,2021-01-15 19:06:02:298
-0.151,9.781,0.287,0,0,0,7459,2021-01-15 19:06:02:311
-0.151,9.781,0.287,0,0,0,7468,2021-01-15 19:06:02:320
-0.151,9.781,0.287,0,0,0,7476,2021-01-15 19:06:02:328
-0.151,9.781,0.287,0,0,0,7487,2021-01-15 19:06:02:339
-0.151,9.781,0.287,0,0,0,7496,2021-01-15 19:06:02:348
-0.151,9.781,0.287,0,0,0,7506,2021-01-15 19:06:02:358
-0.158,9.761,0.278,0,0,0,7516,2021-01-15 19:06:02:368
-0.158,9.761,0.278,0,0,0,7527,2021-01-15 19:06:02:379
-0.158,9.761,0.278,0,0,0,7536,2021-01-15 19:06:02:388
-0.158,9.761,0.278,0,0,0,7546,2021-01-15 19:06:02:398
-0.158,9.761,0.278,0,0,0,7556,2021-01-15 19:06:02:408
-0.158,9.764,0.261,0,0,0,7567,2021-01-15 19:06:02:419
-0.175,9.764,0.261,0,0,0,7576,2021-01-15 19:06:02:428
-0.175,9.764,0.261,0,0,0,7586,2021-01-15 19:06:02:438
-0.175,9.764,0.261,0,0,0,7596,2021-01-15 19:06:02:448
-0.175,9.764,0.261,0,0,0,7607,2021-01-15 19:06:02:459
-0.175,9.764,0.261,0,0,0,7616,2021-01-15 19:06:02:468
-0.175,9.764,0.261,0,0,0,7626,2021-01-15 19:06:02:478
-0.168,9.778,0.28,0,0,0,7636,2021-01-15 19:06:02:488
-0.168,9.778,0.28,0,0,0,7646,2021-01-15 19:06:02:498
-0.168,9.778,0.28,0,0,0,7656,2021-01-15 19:06:02:508
-0.168,9.778,0.28,0,0,0,7667,2021-01-15 19:06:02:519
-0.168,9.778,0.28,0,0,0,7679,2021-01-15 19:06:02:531
-0.16,9.778,0.28,0,0,0,7686,2021-01-15 19:06:02:538
-0.16,9.778,0.28,0,0,0,7701,2021-01-15 19:06:02:553
-0.16,9.778,0.28,0,0,0,7708,2021-01-15 19:06:02:560
-0.16,9.778,0.28,0,0,0,7720,2021-01-15 19:06:02:572
-0.16,9.778,0.28,0,0,0,7726,2021-01-15 19:06:02:578
-0.16,9.778,0.28,0,0,0,7736,2021-01-15 19:06:02:588
-0.16,9.778,0.28,0,0,0,7746,2021-01-15 19:06:02:598
-0.182,9.802,0.275,0,0,0,7756,2021-01-15 19:06:02:608
-0.182,9.802,0.275,0,0,0,7766,2021-01-15 19:06:02:618
-0.182,9.802,0.275,0,0,0,7775,2021-01-15 19:06:02:627
-0.182,9.802,0.275,0,0,0,7785,2021-01-15 19:06:02:637
-0.182,9.802,0.275,0,0,0,7796,2021-01-15 19:06:02:648
-0.16,9.781,0.28,0,0,0,7806,2021-01-15 19:06:02:658
-0.16,9.781,0.28,0,0,0,7815,2021-01-15 19:06:02:667
-0.16,9.781,0.28,0,0,0,7825,2021-01-15 19:06:02:677
-0.16,9.781,0.28,0,0,0,7836,2021-01-15 19:06:02:688
-0.16,9.781,0.28,0,0,0,7847,2021-01-15 19:06:02:699
-0.16,9.781,0.28,0,0,0,7856,2021-01-15 19:06:02:708
-0.172,9.781,0.266,0,0,0,7866,2021-01-15 19:06:02:718
-0.172,9.781,0.266,0,0,0,7876,2021-01-15 19:06:02:728
-0.172,9.781,0.266,0,0,0,7885,2021-01-15 19:06:02:737
-0.172,9.781,0.266,0,0,0,7896,2021-01-15 19:06:02:748
-0.172,9.781,0.266,0,0,0,7907,2021-01-15 19:06:02:759
-0.172,9.781,0.266,0,0,0,7915,2021-01-15 19:06:02:767
-0.172,9.781,0.266,0,0,0,7926,2021-01-15 19:06:02:778
-0.156,9.788,0.28,0,0,0,7936,2021-01-15 19:06:02:788
-0.156,9.788,0.28,0,0,0,7946,2021-01-15 19:06:02:798
-0.156,9.788,0.28,0,0,0,7956,2021-01-15 19:06:02:808
-0.156,9.788,0.28,0,0,0,7966,2021-01-15 19:06:02:818
-0.156,9.788,0.28,0,0,0,7976,2021-01-15 19:06:02:828
-0.168,9.79,0.275,0,0,0,7986,2021-01-15 19:06:02:838
-0.168,9.79,0.275,0,0,0,7998,2021-01-15 19:06:02:850
-0.168,9.79,0.275,0,0,0,8020,2021-01-15 19:06:02:872
-0.168,9.79,0.275,0,0,0,8022,2021-01-15 19:06:02:874
-0.168,9.79,0.275,0,0,0,8027,2021-01-15 19:06:02:879
-0.168,9.79,0.275,0,0,0,8035,2021-01-15 19:06:02:887
-0.168,9.79,0.275,0,0,0,8048,2021-01-15 19:06:02:900
-0.168,9.783,0.259,0,0,0,8056,2021-01-15 19:06:02:908
-0.168,9.783,0.259,0,0,0,8066,2021-01-15 19:06:02:918
-0.168,9.783,0.259,0,0,0,8076,2021-01-15 19:06:02:928
-0.168,9.783,0.259,0,0,0,8086,2021-01-15 19:06:02:938
-0.168,9.783,0.259,0,0,0,8096,2021-01-15 19:06:02:948
-0.168,9.783,0.259,0,0,0,8106,2021-01-15 19:06:02:958
-0.163,9.776,0.294,0,0,0,8117,2021-01-15 19:06:02:969
-0.163,9.776,0.294,0,0,0,8126,2021-01-15 19:06:02:978
-0.163,9.776,0.294,0,0,0,8137,2021-01-15 19:06:02:989
-0.163,9.776,0.294,0,0,0,8147,2021-01-15 19:06:02:999
-0.163,9.776,0.294,0,0,0,8156,2021-01-15 19:06:03:008
-0.163,9.776,0.294,0,0,0,8166,2021-01-15 19:06:03:018
-0.165,9.773,0.29,0,0,0,8176,2021-01-15 19:06:03:028
-0.165,9.773,0.29,0,0,0,8186,2021-01-15 19:06:03:038
-0.165,9.773,0.29,0,0,0,8197,2021-01-15 19:06:03:049
-0.165,9.773,0.29,0,0,0,8206,2021-01-15 19:06:03:058
-0.165,9.773,0.29,0,0,0,8216,2021-01-15 19:06:03:068
-0.165,9.773,0.29,0,0,0,8226,2021-01-15 19:06:03:078
-0.168,9.793,0.273,0,0,0,8237,2021-01-15 19:06:03:089
-0.168,9.793,0.273,0,0,0,8246,2021-01-15 19:06:03:098
-0.168,9.793,0.273,0,0,0,8255,2021-01-15 19:06:03:107
-0.168,9.793,0.273,0,0,0,8267,2021-01-15 19:06:03:119
-0.168,9.793,0.273,0,0,0,8276,2021-01-15 19:06:03:128
-0.168,9.793,0.273,0,0,0,8286,2021-01-15 19:06:03:138
-0.148,9.781,0.268,0,0,0,8297,2021-01-15 19:06:03:149
-0.148,9.781,0.268,0,0,0,8306,2021-01-15 19:06:03:158
-0.148,9.781,0.268,0,0,0,8316,2021-01-15 19:06:03:168
-0.148,9.781,0.268,0,0,0,8327,2021-01-15 19:06:03:179
-0.148,9.781,0.268,0,0,0,8336,2021-01-15 19:06:03:188
-0.148,9.781,0.268,0,0,0,8347,2021-01-15 19:06:03:199
-0.158,9.776,0.29,0,0,0,8356,2021-01-15 19:06:03:208
-0.158,9.776,0.29,0,0,0,8366,2021-01-15 19:06:03:218
-0.158,9.776,0.29,0,0,0,8375,2021-01-15 19:06:03:227
-0.158,9.776,0.29,0,0,0,8386,2021-01-15 19:06:03:238
-0.158,9.776,0.29,0,0,0,8398,2021-01-15 19:06:03:250
-0.158,9.776,0.29,0,0,0,8406,2021-01-15 19:06:03:258
-0.158,9.776,0.29,0,0,0,8416,2021-01-15 19:06:03:268
-0.158,9.776,0.29,0,0,0,8426,2021-01-15 19:06:03:278
-0.158,9.783,0.294,0,0,0,8436,2021-01-15 19:06:03:288
-0.158,9.783,0.294,0,0,0,8446,2021-01-15 19:06:03:298
-0.158,9.783,0.294,0,0,0,8457,2021-01-15 19:06:03:309
-0.158,9.783,0.294,0,0,0,8466,2021-01-15 19:06:03:318
-0.158,9.783,0.294,0,0,0,8476,2021-01-15 19:06:03:328
-0.158,9.783,0.294,0,0,0,8486,2021-01-15 19:06:03:338
-0.16,9.759,0.302,0,0,0,8501,2021-01-15 19:06:03:353
-0.16,9.759,0.302,0,0,0,8505,2021-01-15 19:06:03:357
-0.16,9.759,0.302,0,0,0,8518,2021-01-15 19:06:03:370
-0.16,9.759,0.302,0,0,0,8527,2021-01-15 19:06:03:379
-0.16,9.759,0.302,0,0,0,8536,2021-01-15 19:06:03:388
-0.16,9.759,0.302,0,0,0,8546,2021-01-15 19:06:03:398
-0.16,9.759,0.302,0,0,0,8556,2021-01-15 19:06:03:408
-0.16,9.759,0.302,0,0,0,8566,2021-01-15 19:06:03:418
-0.158,9.764,0.297,0,0,0,8576,2021-01-15 19:06:03:428
-0.158,9.764,0.297,0,0,0,8586,2021-01-15 19:06:03:438
-0.158,9.764,0.297,0,0,0,8596,2021-01-15 19:06:03:448
-0.158,9.764,0.297,0,0,0,8605,2021-01-15 19:06:03:457
-0.158,9.764,0.297,0,0,0,8616,2021-01-15 19:06:03:468
-0.158,9.761,0.292,0,0,0,8627,2021-01-15 19:06:03:479
-0.158,9.761,0.292,0,0,0,8636,2021-01-15 19:06:03:488
-0.158,9.761,0.292,0,0,0,8646,2021-01-15 19:06:03:498
-0.158,9.761,0.292,0,0,0,8656,2021-01-15 19:06:03:508
-0.158,9.761,0.292,0,0,0,8667,2021-01-15 19:06:03:519
-0.158,9.761,0.292,0,0,0,8676,2021-01-15 19:06:03:528
-0.158,9.761,0.292,0,0,0,8686,2021-01-15 19:06:03:538
-0.175,9.778,0.299,0,0,0,8696,2021-01-15 19:06:03:548
-0.175,9.778,0.299,0,0,0,8706,2021-01-15 19:06:03:558
-0.175,9.778,0.299,0,0,0,8716,2021-01-15 19:06:03:568
-0.175,9.778,0.299,0,0,0,8726,2021-01-15 19:06:03:578
-0.175,9.778,0.299,0,0,0,8736,2021-01-15 19:06:03:588
-0.151,9.761,0.299,0,0,0,8746,2021-01-15 19:06:03:598
-0.151,9.761,0.299,0,0,0,8756,2021-01-15 19:06:03:608
-0.151,9.761,0.299,0,0,0,8766,2021-01-15 19:06:03:618
-0.151,9.761,0.299,0,0,0,8777,2021-01-15 19:06:03:629
-0.151,9.761,0.299,0,0,0,8787,2021-01-15 19:06:03:639
-0.151,9.761,0.299,0,0,0,8796,2021-01-15 19:06:03:648
-0.151,9.761,0.299,0,0,0,8806,2021-01-15 19:06:03:658
-0.175,9.778,0.304,0,0,0,8819,2021-01-15 19:06:03:671
-0.175,9.778,0.304,0,0,0,8826,2021-01-15 19:06:03:678
-0.175,9.778,0.304,0,0,0,8836,2021-01-15 19:06:03:688
-0.175,9.778,0.304,0,0,0,8846,2021-01-15 19:06:03:698
-0.175,9.778,0.304,0,0,0,8856,2021-01-15 19:06:03:708
-0.175,9.778,0.304,0,0,0,8866,2021-01-15 19:06:03:718
-0.146,9.771,0.29,0,0,0,8875,2021-01-15 19:06:03:727
-0.146,9.771,0.29,0,0,0,8886,2021-01-15 19:06:03:738
-0.146,9.771,0.29,0,0,0,8896,2021-01-15 19:06:03:748
-0.146,9.771,0.29,0,0,0,8906,2021-01-15 19:06:03:758
-0.146,9.771,0.29,0,0.001,0,8916,2021-01-15 19:06:03:768
-0.175,9.766,0.268,0,0.001,0,8926,2021-01-15 19:06:03:778
-0.175,9.766,0.268,0,0.001,0,8936,2021-01-15 19:06:03:788
-0.175,9.766,0.268,0,0.001,0,8946,2021-01-15 19:06:03:798
-0.175,9.766,0.268,0,0.001,0,8956,2021-01-15 19:06:03:808
-0.175,9.766,0.268,0,0.001,0,8966,2021-01-15 19:06:03:818
-0.175,9.766,0.268,0,0.001,0,8976,2021-01-15 19:06:03:828
-0.168,9.769,0.28,0,0.001,0,8987,2021-01-15 19:06:03:839
-0.168,9.769,0.28,0,0.001,0,8996,2021-01-15 19:06:03:848
-0.168,9.769,0.28,0,0.001,0,9006,2021-01-15 19:06:03:858
-0.168,9.769,0.28,0,0.001,0,9018,2021-01-15 19:06:03:870
-0.168,9.769,0.28,0,0.001,0,9025,2021-01-15 19:06:03:877
-0.168,9.769,0.28,0,0.001,0,9037,2021-01-15 19:06:03:889
-0.172,9.754,0.287,0,0.001,0,9046,2021-01-15 19:06:03:898
-0.172,9.754,0.287,0,0.001,0,9057,2021-01-15 19:06:03:909
-0.172,9.754,0.287,0,0.001,0,9067,2021-01-15 19:06:03:919
-0.172,9.754,0.287,0,0.001,0,9076,2021-01-15 19:06:03:928
-0.172,9.754,0.287,0,0.001,0,9086,2021-01-15 19:06:03:938
-0.172,9.754,0.287,0,0.001,0,9096,2021-01-15 19:06:03:948
-0.172,9.754,0.287,0,0.001,0,9106,2021-01-15 19:06:03:958
-0.172,9.778,0.266,0,0.001,0,9116,2021-01-15 19:06:03:968
-0.172,9.778,0.266,0,0.001,0,9125,2021-01-15 19:06:03:977
-0.172,9.778,0.266,0,0.001,0,9136,2021-01-15 19:06:03:988
-0.172,9.778,0.266,0,0.001,0,9146,2021-01-15 19:06:03:998
-0.172,9.778,0.266,0,0,0,9156,2021-01-15 19:06:04:008
-0.172,9.778,0.266,0,0,0,9168,2021-01-15 19:06:04:020
-0.18,9.769,0.275,0,0,0,9175,2021-01-15 19:06:04:027
-0.18,9.769,0.275,0,0,0,9185,2021-01-15 19:06:04:037
-0.18,9.769,0.275,0,0,0,9196,2021-01-15 19:06:04:048
-0.18,9.769,0.275,0,0,0,9206,2021-01-15 19:06:04:058
-0.18,9.769,0.275,0,0,0,9216,2021-01-15 19:06:04:068
-0.18,9.769,0.275,0,0,0,9226,2021-01-15 19:06:04:078
-0.168,9.773,0.28,0,0,0,9236,2021-01-15 19:06:04:088
-0.168,9.773,0.28,0,0,0,9245,2021-01-15 19:06:04:097
-0.168,9.773,0.28,0,0,0,9256,2021-01-15 19:06:04:108
-0.168,9.773,0.28,0,0,0,9266,2021-01-15 19:06:04:118
-0.168,9.773,0.28,0,0,0,9275,2021-01-15 19:06:04:127
-0.168,9.773,0.28,0,0,0,9287,2021-01-15 19:06:04:139
-0.172,9.778,0.285,0,0,0,9295,2021-01-15 19:06:04:147
-0.172,9.778,0.285,0,0,0,9305,2021-01-15 19:06:04:157
-0.172,9.778,0.285,0,0,0,9315,2021-01-15 19:06:04:167
-0.172,9.778,0.285,0,0,0,9326,2021-01-15 19:06:04:178
-0.172,9.778,0.285,0,0,0,9336,2021-01-15 19:06:04:188
-0.172,9.778,0.285,0,0,0,9346,2021-01-15 19:06:04:198
-0.17,9.771,0.294,0,0,0,9356,2021-01-15 19:06:04:208
-0.17,9.771,0.294,0,0,0,9366,2021-01-15 19:06:04:218
-0.17,9.771,0.294,0,0,0,9376,2021-01-15 19:06:04:228
-0.17,9.771,0.294,0,0,0,9386,2021-01-15 19:06:04:238
-0.17,9.771,0.294,0,0,0,9396,2021-01-15 19:06:04:248
-0.17,9.771,0.294,0,0,0,9406,2021-01-15 19:06:04:258
-0.165,9.79,0.278,0,0,0,9417,2021-01-15 19:06:04:269
-0.165,9.79,0.278,0,0,0,9426,2021-01-15 19:06:04:278
-0.165,9.79,0.278,0,0,0,9436,2021-01-15 19:06:04:288
-0.165,9.79,0.278,0,0,0,9446,2021-01-15 19:06:04:298
-0.165,9.79,0.278,0,0,0,9456,2021-01-15 19:06:04:308
-0.165,9.79,0.278,0,0,0,9467,2021-01-15 19:06:04:319
-0.175,9.778,0.29,0,0,0,9476,2021-01-15 19:06:04:328
-0.175,9.778,0.29,0,0,0,9486,2021-01-15 19:06:04:338
-0.175,9.778,0.29,0,0,0,9497,2021-01-15 19:06:04:349
-0.175,9.778,0.29,0,0,0,9506,2021-01-15 19:06:04:358
-0.175,9.778,0.29,0,0,0,9516,2021-01-15 19:06:04:368
-0.146,9.783,0.28,0,0,0,9531,2021-01-15 19:06:04:383
-0.146,9.783,0.28,0,0,0,9536,2021-01-15 19:06:04:388
-0.146,9.783,0.28,0,0,0,9546,2021-01-15 19:06:04:398
-0.146,9.783,0.28,0,0,0,9556,2021-01-15 19:06:04:408
-0.146,9.783,0.28,0,0,0,9574,2021-01-15 19:06:04:426
-0.146,9.783,0.28,0,0,0,9576,2021-01-15 19:06:04:428
-0.17,9.773,0.285,0,0,0,9591,2021-01-15 19:06:04:443
-0.17,9.773,0.285,0,0,0,9596,2021-01-15 19:06:04:448
-0.17,9.773,0.285,0,0,0,9606,2021-01-15 19:06:04:458
-0.17,9.773,0.285,0,0,0,9618,2021-01-15 19:06:04:470
-0.17,9.773,0.285,0,0,0,9626,2021-01-15 19:06:04:478
-0.17,9.773,0.285,0,0,0,9639,2021-01-15 19:06:04:491
-0.17,9.773,0.285,0,0,0,9647,2021-01-15 19:06:04:499
-0.16,9.761,0.28,0,0,0,9656,2021-01-15 19:06:04:508
-0.16,9.761,0.28,0,0,0,9675,2021-01-15 19:06:04:527
-0.16,9.761,0.28,0,0,0,9675,2021-01-15 19:06:04:527
-0.16,9.761,0.28,0,0,0,9689,2021-01-15 19:06:04:541
-0.16,9.761,0.28,0,0,0,9695,2021-01-15 19:06:04:547
-0.16,9.761,0.28,0,0,0,9707,2021-01-15 19:06:04:559
-0.156,9.785,0.285,0,0,0,9716,2021-01-15 19:06:04:568
-0.156,9.785,0.285,0,0,0,9726,2021-01-15 19:06:04:578
-0.156,9.785,0.285,0,0,0,9736,2021-01-15 19:06:04:588
-0.156,9.785,0.285,0,0,0,9746,2021-01-15 19:06:04:598
-0.156,9.785,0.285,0,0,0,9756,2021-01-15 19:06:04:608
-0.156,9.785,0.285,0,0,0,9766,2021-01-15 19:06:04:618
-0.148,9.79,0.278,0,0,0,9776,2021-01-15 19:06:04:628
-0.148,9.79,0.278,0,0,0,9786,2021-01-15 19:06:04:638
-0.148,9.79,0.278,0,0,0,9796,2021-01-15 19:06:04:648
-0.148,9.79,0.278,0,0,0,9806,2021-01-15 19:06:04:658
-0.148,9.79,0.278,0,0,0,9816,2021-01-15 19:06:04:668
-0.165,9.788,0.266,0,0,0,9826,2021-01-15 19:06:04:678
-0.165,9.788,0.266,0,0,0,9836,2021-01-15 19:06:04:688
-0.165,9.788,0.266,0,0,0,9846,2021-01-15 19:06:04:698
-0.165,9.788,0.266,0,0,0,9857,2021-01-15 19:06:04:709
-0.165,9.788,0.266,0,0,0,9865,2021-01-15 19:06:04:717
-0.165,9.788,0.266,0,0,0,9875,2021-01-15 19:06:04:727
-0.165,9.788,0.266,0,0,0,9886,2021-01-15 19:06:04:738
-0.17,9.771,0.273,0,0,0,9896,2021-01-15 19:06:04:748
-0.17,9.771,0.273,0,0,0,9906,2021-01-15 19:06:04:758
-0.17,9.771,0.273,0,0,0,9915,2021-01-15 19:06:04:767
-0.17,9.771,0.273,0,0,0,9926,2021-01-15 19:06:04:778
-0.17,9.771,0.273,0,0,0,9936,2021-01-15 19:06:04:788
-0.17,9.771,0.273,0,0,0,9947,2021-01-15 19:06:04:799
-0.16,9.778,0.285,0,0,0,9956,2021-01-15 19:06:04:808
-0.16,9.778,0.285,0,0,0,9966,2021-01-15 19:06:04:818
-0.16,9.778,0.285,0,0,0,9976,2021-01-15 19:06:04:828
-0.16,9.778,0.285,0,0,0,9986,2021-01-15 19:06:04:838
-0.16,9.778,0.285,0,0,0,9996,2021-01-15 19:06:04:848
-0.16,9.778,0.285,0,0,0,10006,2021-01-15 19:06:04:858
-0.168,9.785,0.266,0,0,0,10016,2021-01-15 19:06:04:868
-0.168,9.785,0.266,0,0,0,10026,2021-01-15 19:06:04:878
-0.168,9.785,0.266,0,0,0,10039,2021-01-15 19:06:04:891
-0.168,9.785,0.266,0,0,0,10046,2021-01-15 19:06:04:898
-0.168,9.785,0.266,0,0,0,10057,2021-01-15 19:06:04:909
-0.168,9.785,0.266,0,0,0,10066,2021-01-15 19:06:04:918
-0.156,9.8,0.294,0,0,0,10076,2021-01-15 19:06:04:928
-0.156,9.8,0.294,0,0,0,10086,2021-01-15 19:06:04:938
-0.156,9.8,0.294,0,0,0,10096,2021-01-15 19:06:04:948
-0.156,9.8,0.294,0,0,0,10106,2021-01-15 19:06:04:958
-0.156,9.8,0.294,0,0,0,10116,2021-01-15 19:06:04:968
-0.146,9.759,0.256,0,0,0,10130,2021-01-15 19:06:04:982
-0.146,9.759,0.256,0,0,0,10136,2021-01-15 19:06:04:988
-0.146,9.759,0.256,0,0,0,10146,2021-01-15 19:06:04:998
-0.146,9.759,0.256,0,0,0,10156,2021-01-15 19:06:05:008
-0.146,9.759,0.256,0,0,0,10168,2021-01-15 19:06:05:020
-0.146,9.759,0.256,0,0,0,10176,2021-01-15 19:06:05:028
-0.146,9.759,0.256,0,0,0,10187,2021-01-15 19:06:05:039
-0.163,9.764,0.268,0,0,0,10196,2021-01-15 19:06:05:048
-0.163,9.764,0.268,0,0,0,10206,2021-01-15 19:06:05:058
-0.163,9.764,0.268,0,0,0,10216,2021-01-15 19:06:05:068
-0.163,9.764,0.268,0,0,0,10226,2021-01-15 19:06:05:078
-0.163,9.764,0.268,0,0,0,10237,2021-01-15 19:06:05:089
-0.163,9.769,0.273,0,0,0,10247,2021-01-15 19:06:05:099
-0.165,9.769,0.273,0,0,0,10256,2021-01-15 19:06:05:108
-0.165,9.769,0.273,0,0,0,10267,2021-01-15 19:06:05:119
-0.165,9.769,0.273,0,0,0,10276,2021-01-15 19:06:05:128
-0.165,9.769,0.273,0,0,0,10286,2021-01-15 19:06:05:138
-0.165,9.769,0.273,0,0,0,10296,2021-01-15 19:06:05:148
-0.165,9.769,0.273,0,0,0,10306,2021-01-15 19:06:05:158
-0.158,9.766,0.283,0,0,0,10316,2021-01-15 19:06:05:168
-0.158,9.766,0.283,0,0,0,10326,2021-01-15 19:06:05:178
-0.158,9.766,0.283,0,0,0,10336,2021-01-15 19:06:05:188
-0.158,9.766,0.283,0,0,0,10346,2021-01-15 19:06:05:198
-0.158,9.766,0.283,0,0,0,10356,2021-01-15 19:06:05:208
-0.175,9.769,0.275,0,0,0,10368,2021-01-15 19:06:05:220
-0.175,9.769,0.275,0,0,0,10376,2021-01-15 19:06:05:228
-0.175,9.769,0.275,0,0,0,10386,2021-01-15 19:06:05:238
-0.175,9.769,0.275,0,0,0,10396,2021-01-15 19:06:05:248
-0.175,9.769,0.275,0,0,0,10406,2021-01-15 19:06:05:258
-0.175,9.769,0.275,0,0,0,10416,2021-01-15 19:06:05:268
-0.175,9.769,0.275,0,0,0,10426,2021-01-15 19:06:05:278
-0.156,9.781,0.285,0,0,0,10436,2021-01-15 19:06:05:288
-0.156,9.781,0.285,0,0,0,10446,2021-01-15 19:06:05:298
-0.156,9.781,0.285,0,0,0,10457,2021-01-15 19:06:05:309
-0.156,9.781,0.285,0,0,0,10466,2021-01-15 19:06:05:318
-0.156,9.781,0.285,0,0,0,10476,2021-01-15 19:06:05:328
-0.156,9.781,0.285,0,0,0,10486,2021-01-15 19:06:05:338
-0.177,9.793,0.275,0,0,0,10496,2021-01-15 19:06:05:348
-0.177,9.793,0.275,0,0,0,10506,2021-01-15 19:06:05:358
-0.177,9.793,0.275,0,0,0,10516,2021-01-15 19:06:05:368
-0.177,9.793,0.275,0,0,0,10526,2021-01-15 19:06:05:378
-0.177,9.793,0.275,0,0,0,10537,2021-01-15 19:06:05:389
-0.177,9.793,0.275,0,0,0,10547,2021-01-15 19:06:05:399
-0.177,9.793,0.275,0,0,0,10556,2021-01-15 19:06:05:408
-0.17,9.773,0.29,0,0,0,10566,2021-01-15 19:06:05:418
-0.17,9.773,0.29,0,0,0,10576,2021-01-15 19:06:05:428
-0.17,9.773,0.29,0,0,0,10588,2021-01-15 19:06:05:440
-0.17,9.773,0.29,0,0,0,10596,2021-01-15 19:06:05:448
-0.17,9.773,0.29,0,0,0,10607,2021-01-15 19:06:05:459
-0.17,9.773,0.29,0,0,0,10616,2021-01-15 19:06:05:468
-0.17,9.773,0.29,0,0,0,10626,2021-01-15 19:06:05:478
-0.156,9.761,0.268,0,0,0,10637,2021-01-15 19:06:05:489
-0.156,9.761,0.268,0,0,0,10646,2021-01-15 19:06:05:498
-0.156,9.761,0.268,0,0,0,10657,2021-01-15 19:06:05:509
-0.156,9.761,0.268,0,0,0,10667,2021-01-15 19:06:05:519
-0.156,9.761,0.268,0,0,0,10676,2021-01-15 19:06:05:528
-0.156,9.761,0.268,0,0,0,10686,2021-01-15 19:06:05:538
-0.165,9.776,0.268,0,0,0,10696,2021-01-15 19:06:05:548
-0.165,9.776,0.268,0,0,0,10705,2021-01-15 19:06:05:557
-0.165,9.776,0.268,0,0,0,10716,2021-01-15 19:06:05:568
-0.165,9.776,0.268,0,0,0,10730,2021-01-15 19:06:05:582
-0.165,9.776,0.268,0,0,0,10736,2021-01-15 19:06:05:588
-0.165,9.776,0.268,0,0,0,10746,2021-01-15 19:06:05:598
-0.158,9.773,0.273,0,0,0,10756,2021-01-15 19:06:05:608
-0.158,9.773,0.273,0,0,0,10766,2021-01-15 19:06:05:618
-0.158,9.773,0.273,0,0,0,10776,2021-01-15 19:06:05:628
-0.158,9.773,0.273,0,0,0,10786,2021-01-15 19:06:05:638
-0.158,9.773,0.273,0,0,0,10796,2021-01-15 19:06:05:648
-0.158,9.783,0.285,0,0,0,10806,2021-01-15 19:06:05:658
-0.158,9.783,0.285,0,0,0,10816,2021-01-15 19:06:05:668
-0.158,9.783,0.285,0,0,0,10828,2021-01-15 19:06:05:680
-0.158,9.783,0.285,0,0,0,10836,2021-01-15 19:06:05:688
-0.158,9.783,0.285,0,0,0,10847,2021-01-15 19:06:05:699
-0.158,9.783,0.285,0,0,0,10856,2021-01-15 19:06:05:708
-0.16,9.773,0.278,0,0,0,10866,2021-01-15 19:06:05:718
-0.16,9.773,0.278,0,0,0,10876,2021-01-15 19:06:05:728
-0.16,9.773,0.278,0,0,0,10894,2021-01-15 19:06:05:746
-0.16,9.773,0.278,0,0,0,10896,2021-01-15 19:06:05:748
-0.16,9.773,0.278,0,0,0,10906,2021-01-15 19:06:05:758
-0.16,9.773,0.278,0,0,0,10916,2021-01-15 19:06:05:768
-0.16,9.781,0.268,0,0,0,10927,2021-01-15 19:06:05:779
-0.146,9.781,0.268,0,0,0,10937,2021-01-15 19:06:05:789
-0.146,9.781,0.268,0,0,0,10946,2021-01-15 19:06:05:798
-0.146,9.781,0.268,0,0,0,10956,2021-01-15 19:06:05:808
-0.146,9.781,0.268,0,0,0,10966,2021-01-15 19:06:05:818
-0.146,9.781,0.268,0,0,0,10976,2021-01-15 19:06:05:828
-0.158,9.785,0.263,0,0,0,10990,2021-01-15 19:06:05:842
-0.158,9.785,0.263,0,0,0,10996,2021-01-15 19:06:05:848
-0.158,9.785,0.263,0,0,0,11007,2021-01-15 19:06:05:859
-0.158,9.785,0.263,0,0,0,11016,2021-01-15 19:06:05:868
-0.158,9.785,0.263,0,0,0,11026,2021-01-15 19:06:05:878
-0.158,9.785,0.263,0,0,0,11040,2021-01-15 19:06:05:892
-0.146,9.761,0.268,0,0,0,11053,2021-01-15 19:06:05:905
-0.146,9.761,0.268,0,0,0,11056,2021-01-15 19:06:05:908
-0.146,9.761,0.268,0,0,0,11066,2021-01-15 19:06:05:918
-0.146,9.761,0.268,0,0,0,11076,2021-01-15 19:06:05:928
-0.146,9.761,0.268,0,0,0,11086,2021-01-15 19:06:05:938
-0.146,9.761,0.268,0,0,0,11096,2021-01-15 19:06:05:948
-0.148,9.778,0.271,0,0,0,11110,2021-01-15 19:06:05:962
-0.148,9.778,0.271,0,0,0,11116,2021-01-15 19:06:05:968
-0.148,9.778,0.271,0,0,0,11126,2021-01-15 19:06:05:978
-0.148,9.778,0.271,0,0,0,11136,2021-01-15 19:06:05:988
-0.148,9.778,0.271,0,0,0,11146,2021-01-15 19:06:05:998
-0.148,9.778,0.271,0,0,0,11156,2021-01-15 19:06:06:008
-0.148,9.778,0.271,0,0,0,11166,2021-01-15 19:06:06:018
-0.18,9.788,0.278,0,0,0,11176,2021-01-15 19:06:06:028
-0.18,9.788,0.278,0,0,0,11186,2021-01-15 19:06:06:038
-0.18,9.788,0.278,0,0,0,11197,2021-01-15 19:06:06:049
-0.18,9.788,0.278,0,0,0,11206,2021-01-15 19:06:06:058
-0.18,9.788,0.278,0,0,0,11216,2021-01-15 19:06:06:068
-0.18,9.788,0.278,0,0,0,11226,2021-01-15 19:06:06:078
-0.163,9.785,0.268,0,0,0,11236,2021-01-15 19:06:06:088
-0.163,9.785,0.268,0,0,0,11248,2021-01-15 19:06:06:100
-0.163,9.785,0.268,0,0,0,11256,2021-01-15 19:06:06:108
-0.163,9.785,0.268,0,0,0,11266,2021-01-15 19:06:06:118
-0.163,9.785,0.268,0,0,0,11277,2021-01-15 19:06:06:129
-0.163,9.785,0.268,0,0,0,11286,2021-01-15 19:06:06:138
-0.165,9.788,0.294,0,0,0,11299,2021-01-15 19:06:06:151
-0.165,9.788,0.294,0,0,0,11306,2021-01-15 19:06:06:158
-0.165,9.788,0.294,0,0,0,11319,2021-01-15 19:06:06:171
-0.165,9.788,0.294,0,0,0,11329,2021-01-15 19:06:06:181
-0.165,9.788,0.294,0,0,0,11336,2021-01-15 19:06:06:188
-0.165,9.788,0.294,0,0,0,11347,2021-01-15 19:06:06:199
-0.163,9.764,0.294,0,0,0,11358,2021-01-15 19:06:06:210
-0.163,9.764,0.294,0,0,0,11366,2021-01-15 19:06:06:218
-0.163,9.764,0.294,0,0,0,11378,2021-01-15 19:06:06:230
-0.163,9.764,0.294,0,0,0,11389,2021-01-15 19:06:06:241
-0.163,9.764,0.294,0,0,0,11396,2021-01-15 19:06:06:248
-0.163,9.764,0.294,0,0,0,11406,2021-01-15 19:06:06:258
-0.17,9.795,0.28,0,0,0,11416,2021-01-15 19:06:06:268
-0.17,9.795,0.28,0,0,0,11426,2021-01-15 19:06:06:278
-0.17,9.795,0.28,0,0,0,11439,2021-01-15 19:06:06:291
-0.17,9.795,0.28,0,0,0,11447,2021-01-15 19:06:06:299
-0.17,9.795,0.28,0,0,0,11456,2021-01-15 19:06:06:308
-0.17,9.776,0.271,0,0,0,11466,2021-01-15 19:06:06:318
-0.165,9.776,0.271,0,0,0,11476,2021-01-15 19:06:06:328
-0.165,9.776,0.271,0,0,0,11486,2021-01-15 19:06:06:338
-0.165,9.776,0.271,0,0,0,11496,2021-01-15 19:06:06:348
-0.165,9.776,0.271,0,0,0,11506,2021-01-15 19:06:06:358
-0.165,9.776,0.271,0,0,0,11516,2021-01-15 19:06:06:368
-0.165,9.776,0.271,0,0,0,11526,2021-01-15 19:06:06:378
-0.153,9.764,0.278,0,0,0,11536,2021-01-15 19:06:06:388
-0.153,9.764,0.278,0,0,0,11547,2021-01-15 19:06:06:399
-0.153,9.764,0.278,0,0,0,11556,2021-01-15 19:06:06:408
-0.153,9.764,0.278,0,0,0,11567,2021-01-15 19:06:06:419
-0.153,9.764,0.278,0,0,0,11576,2021-01-15 19:06:06:428
-0.156,9.754,0.273,0,0,0,11586,2021-01-15 19:06:06:438
-0.156,9.754,0.273,0,0,0,11599,2021-01-15 19:06:06:451
-0.156,9.754,0.273,0,0,0,11607,2021-01-15 19:06:06:459
-0.156,9.754,0.273,0,0,0,11616,2021-01-15 19:06:06:468
-0.156,9.754,0.273,0,0,0,11626,2021-01-15 19:06:06:478
-0.156,9.754,0.273,0,0,0,11636,2021-01-15 19:06:06:488
-0.156,9.754,0.273,0,0,0,11646,2021-01-15 19:06:06:498
-0.175,9.773,0.283,0,0,0,11656,2021-01-15 19:06:06:508
-0.175,9.773,0.283,0,0,0,11666,2021-01-15 19:06:06:518
-0.175,9.773,0.283,0,0,0,11676,2021-01-15 19:06:06:528
-0.175,9.773,0.283,0,0,0,11686,2021-01-15 19:06:06:538
-0.175,9.773,0.283,0,0,0,11696,2021-01-15 19:06:06:548
-0.175,9.773,0.283,0,0,0,11706,2021-01-15 19:06:06:558
-0.17,9.776,0.287,0,0,0,11716,2021-01-15 19:06:06:568
-0.17,9.776,0.287,0,0,0,11727,2021-01-15 19:06:06:579
-0.17,9.776,0.287,0,0,0,11736,2021-01-15 19:06:06:588
-0.17,9.776,0.287,0,0,0,11746,2021-01-15 19:06:06:598
-0.17,9.776,0.287,0,0,0,11756,2021-01-15 19:06:06:608
-0.17,9.778,0.28,0,0,0,11766,2021-01-15 19:06:06:618
-0.148,9.778,0.28,0,0,0,11776,2021-01-15 19:06:06:628
-0.148,9.778,0.28,0,0,0,11787,2021-01-15 19:06:06:639
-0.148,9.778,0.28,0,0,0,11796,2021-01-15 19:06:06:648
-0.148,9.778,0.28,0,0,0,11810,2021-01-15 19:06:06:662
-0.148,9.778,0.28,0,0,0,11815,2021-01-15 19:06:06:667
-0.148,9.778,0.28,0,0,0,11827,2021-01-15 19:06:06:679
-0.165,9.778,0.28,0,0,0,11838,2021-01-15 19:06:06:690
-0.165,9.778,0.28,0,0,0,11846,2021-01-15 19:06:06:698
-0.165,9.778,0.28,0,0,0,11856,2021-01-15 19:06:06:708
-0.165,9.778,0.28,0,0,0,11866,2021-01-15 19:06:06:718
-0.165,9.778,0.28,0,0,0,11879,2021-01-15 19:06:06:731
-0.165,9.778,0.28,0,0,0,11886,2021-01-15 19:06:06:738
-0.153,9.795,0.273,0,0,0,11896,2021-01-15 19:06:06:748
-0.153,9.795,0.273,0,0,0,11914,2021-01-15 19:06:06:766
-0.153,9.795,0.273,0,0,0,11918,2021-01-15 19:06:06:770
-0.153,9.795,0.273,0,0,0,11926,2021-01-15 19:06:06:778
-0.153,9.795,0.273,0,0,0,11936,2021-01-15 19:06:06:788
-0.153,9.795,0.273,0,0,0,11946,2021-01-15 19:06:06:798
-0.177,9.764,0.271,0,0,0,11956,2021-01-15 19:06:06:808
-0.177,9.764,0.271,0,0,0,11966,2021-01-15 19:06:06:818
-0.177,9.764,0.271,0,0,0,11976,2021-01-15 19:06:06:828
-0.177,9.764,0.271,0,0,0,11987,2021-01-15 19:06:06:839
-0.177,9.764,0.271,0,0,0,11996,2021-01-15 19:06:06:848
-0.177,9.764,0.271,0,0,0,12006,2021-01-15 19:06:06:858
-0.146,9.773,0.249,0,0,0,12016,2021-01-15 19:06:06:868
-0.146,9.773,0.249,0,0,0,12025,2021-01-15 19:06:06:877
-0.146,9.773,0.249,0,0,0,12036,2021-01-15 19:06:06:888
-0.146,9.773,0.249,0,0,0,12045,2021-01-15 19:06:06:897
-0.146,9.773,0.249,0,0,0,12056,2021-01-15 19:06:06:908
-0.146,9.773,0.249,0,0,0,12066,2021-01-15 19:06:06:918
-0.172,9.776,0.285,0,0,0,12077,2021-01-15 19:06:06:929
-0.172,9.776,0.285,0,0,0,12086,2021-01-15 19:06:06:938
-0.172,9.776,0.285,0,0,0,12096,2021-01-15 19:06:06:948
-0.172,9.776,0.285,0,0,0,12107,2021-01-15 19:06:06:959
-0.172,9.776,0.285,0,0,0,12116,2021-01-15 19:06:06:968
-0.16,9.778,0.275,0,0,0,12131,2021-01-15 19:06:06:983
-0.16,9.778,0.275,0,0,0,12136,2021-01-15 19:06:06:988
-0.16,9.778,0.275,0,0,0,12146,2021-01-15 19:06:06:998
-0.16,9.778,0.275,0,0,0,12156,2021-01-15 19:06:07:008
-0.16,9.778,0.275,0,0,0,12166,2021-01-15 19:06:07:018
-0.16,9.778,0.275,0,0,0,12175,2021-01-15 19:06:07:027
-0.16,9.778,0.275,0,0,0,12186,2021-01-15 19:06:07:038
-0.17,9.759,0.285,0,0,0,12198,2021-01-15 19:06:07:050
-0.17,9.759,0.285,0,0,0,12206,2021-01-15 19:06:07:058
-0.17,9.759,0.285,0,0,0,12216,2021-01-15 19:06:07:068
-0.17,9.759,0.285,0,0,0,12226,2021-01-15 19:06:07:078
-0.165,9.783,0.268,0,0,0,12249,2021-01-15 19:06:07:101
-0.165,9.783,0.268,0,0,0,12250,2021-01-15 19:06:07:102
-0.165,9.783,0.268,0,0,0,12258,2021-01-15 19:06:07:110
-0.165,9.783,0.268,0,0,0,12265,2021-01-15 19:06:07:117
-0.165,9.783,0.268,0,0,0,12276,2021-01-15 19:06:07:128
-0.165,9.783,0.268,0,0,0,12286,2021-01-15 19:06:07:138
-0.165,9.783,0.268,0,0,0,12296,2021-01-15 19:06:07:148
-0.165,9.783,0.268,0,0,0,12310,2021-01-15 19:06:07:162
-0.156,9.778,0.28,0,0,0,12315,2021-01-15 19:06:07:167
-0.156,9.778,0.28,0,0,0,12326,2021-01-15 19:06:07:178
-0.156,9.778,0.28,0,0,0,12336,2021-01-15 19:06:07:188
-0.156,9.778,0.28,0,0,0,12356,2021-01-15 19:06:07:208
-0.156,9.778,0.28,0,0,0,12356,2021-01-15 19:06:07:208
-0.156,9.778,0.28,0,0,0,12366,2021-01-15 19:06:07:218
-0.156,9.778,0.28,0,0,0,12376,2021-01-15 19:06:07:228
-0.156,9.778,0.28,0,0,0,12386,2021-01-15 19:06:07:238
-0.153,9.776,0.275,0,0,0,12398,2021-01-15 19:06:07:250
-0.153,9.776,0.275,0,0,0,12406,2021-01-15 19:06:07:258
-0.153,9.776,0.275,0,0,0,12416,2021-01-15 19:06:07:268
-0.153,9.776,0.275,0,0,0,12429,2021-01-15 19:06:07:281
-0.153,9.776,0.275,0,0,0,12436,2021-01-15 19:06:07:288
-0.153,9.776,0.275,0,0,0,12447,2021-01-15 19:06:07:299
-0.16,9.776,0.283,0,0,0,12460,2021-01-15 19:06:07:312
-0.16,9.776,0.283,0,0,0,12470,2021-01-15 19:06:07:322
-0.16,9.776,0.283,0,0,0,12476,2021-01-15 19:06:07:328
-0.16,9.776,0.283,0,0,0,12487,2021-01-15 19:06:07:339
-0.16,9.776,0.283,0,0,0,12496,2021-01-15 19:06:07:348
-0.16,9.776,0.283,0,0,0,12506,2021-01-15 19:06:07:358
-0.17,9.766,0.285,0,0,0,12516,2021-01-15 19:06:07:368
-0.17,9.766,0.285,0,0,0,12529,2021-01-15 19:06:07:381
-0.17,9.766,0.285,0,0,0,12536,2021-01-15 19:06:07:388
-0.17,9.766,0.285,0,0,0,12547,2021-01-15 19:06:07:399
-0.184,9.778,0.273,0,0,0,12556,2021-01-15 19:06:07:408
-0.184,9.778,0.273,0,0,0,12576,2021-01-15 19:06:07:428
-0.184,9.778,0.273,0,0,0,12577,2021-01-15 19:06:07:429
-0.184,9.778,0.273,0,0,0,12586,2021-01-15 19:06:07:438
-0.184,9.778,0.273,0,0,0,12595,2021-01-15 19:06:07:447
-0.184,9.778,0.273,0,0,0,12607,2021-01-15 19:06:07:459
-0.184,9.778,0.273,0,0,0,12616,2021-01-15 19:06:07:468
-0.184,9.778,0.273,0,0,0,12626,2021-01-15 19:06:07:478
-0.16,9.776,0.29,0,0,0,12638,2021-01-15 19:06:07:490
-0.16,9.776,0.29,0,0,0,12646,2021-01-15 19:06:07:498
-0.16,9.776,0.29,0,0,0,12657,2021-01-15 19:06:07:509
-0.16,9.776,0.29,0,0,0,12669,2021-01-15 19:06:07:521
-0.16,9.776,0.29,0,0,0,12676,2021-01-15 19:06:07:528
-0.16,9.776,0.29,0,0,0,12687,2021-01-15 19:06:07:539
-0.165,9.766,0.285,0,0,0,12696,2021-01-15 19:06:07:548
-0.165,9.766,0.285,0,0,0,12705,2021-01-15 19:06:07:557
-0.165,9.766,0.285,0,0,0,12716,2021-01-15 19:06:07:568
-0.165,9.766,0.285,0,0,0,12726,2021-01-15 19:06:07:578
-0.165,9.766,0.285,0,0,0,12736,2021-01-15 19:06:07:588
-0.165,9.766,0.285,0,0,0,12746,2021-01-15 19:06:07:598
-0.165,9.769,0.28,0,0,0,12756,2021-01-15 19:06:07:608
-0.165,9.769,0.28,0,0,0,12767,2021-01-15 19:06:07:619
-0.165,9.769,0.28,0,0,0,12777,2021-01-15 19:06:07:629
-0.165,9.769,0.28,0,0,0,12785,2021-01-15 19:06:07:637
-0.165,9.769,0.28,0,0,0,12796,2021-01-15 19:06:07:648
-0.165,9.769,0.28,0,0,0,12806,2021-01-15 19:06:07:658
-0.153,9.781,0.266,0,0,0,12816,2021-01-15 19:06:07:668
-0.153,9.781,0.266,0,0,0,12827,2021-01-15 19:06:07:679
-0.153,9.781,0.266,0,0,0,12835,2021-01-15 19:06:07:687
-0.153,9.781,0.266,0,0,0,12847,2021-01-15 19:06:07:699
-0.153,9.781,0.266,0,0,0,12855,2021-01-15 19:06:07:707
-0.153,9.781,0.266,0,0,0,12866,2021-01-15 19:06:07:718
-0.16,9.771,0.283,0,0,0,12878,2021-01-15 19:06:07:730
-0.16,9.771,0.283,0,0,0,12885,2021-01-15 19:06:07:737
-0.16,9.771,0.283,0,0,0,12900,2021-01-15 19:06:07:752
-0.16,9.771,0.283,0,0,0,12906,2021-01-15 19:06:07:758
-0.16,9.771,0.283,0,0,0,12916,2021-01-15 19:06:07:768
-0.16,9.771,0.283,0,0,0,12927,2021-01-15 19:06:07:779
-0.16,9.788,0.278,0,0,0,12936,2021-01-15 19:06:07:788
-0.16,9.788,0.278,0,0,0,12946,2021-01-15 19:06:07:798
-0.16,9.788,0.278,0,0,0,12956,2021-01-15 19:06:07:808
-0.16,9.788,0.278,0,0,0,12966,2021-01-15 19:06:07:818
-0.16,9.788,0.278,0,0,0,12976,2021-01-15 19:06:07:828
-0.16,9.788,0.278,0,0,0,12985,2021-01-15 19:06:07:837
-0.16,9.757,0.259,0,0,0,12996,2021-01-15 19:06:07:848
-0.16,9.757,0.259,0,0,0,13005,2021-01-15 19:06:07:857
-0.16,9.757,0.259,0,0,0,13020,2021-01-15 19:06:07:872
-0.16,9.757,0.259,0,0,0,13026,2021-01-15 19:06:07:878
-0.16,9.757,0.259,0,0,0,13036,2021-01-15 19:06:07:888
-0.16,9.757,0.259,0,0,0,13046,2021-01-15 19:06:07:898
-0.16,9.773,0.268,0,0,0,13056,2021-01-15 19:06:07:908
-0.16,9.773,0.268,0,0,0,13070,2021-01-15 19:06:07:922
-0.16,9.773,0.268,0,0,0,13076,2021-01-15 19:06:07:928
-0.16,9.773,0.268,0,0,0,13086,2021-01-15 19:06:07:938
-0.16,9.773,0.268,0,0,0,13099,2021-01-15 19:06:07:951
-0.16,9.773,0.268,0,0,0,13106,2021-01-15 19:06:07:958
-0.172,9.764,0.294,0,0,0,13126,2021-01-15 19:06:07:978
-0.172,9.764,0.294,0,0,0,13128,2021-01-15 19:06:07:980
-0.172,9.764,0.294,0,0,0,13135,2021-01-15 19:06:07:987
-0.172,9.764,0.294,0,0,0,13146,2021-01-15 19:06:07:998
-0.172,9.764,0.294,0,0,0,13156,2021-01-15 19:06:08:008
-0.172,9.764,0.294,0,0,0,13166,2021-01-15 19:06:08:018
-0.18,9.766,0.285,0,0,0,13180,2021-01-15 19:06:08:032
-0.18,9.766,0.285,0,0,0,13186,2021-01-15 19:06:08:038
-0.18,9.766,0.285,0,0,0,13197,2021-01-15 19:06:08:049
-0.18,9.766,0.285,0,0,0,13205,2021-01-15 19:06:08:057
-0.18,9.766,0.285,0,0,0,13216,2021-01-15 19:06:08:068
-0.18,9.766,0.285,0,0,0,13226,2021-01-15 19:06:08:078
-0.17,9.781,0.268,0,0,0,13237,2021-01-15 19:06:08:089
-0.17,9.781,0.268,0,0,0,13246,2021-01-15 19:06:08:098
-0.17,9.781,0.268,0,0,0,13256,2021-01-15 19:06:08:108
-0.17,9.781,0.268,0,0,0,13266,2021-01-15 19:06:08:118
-0.17,9.781,0.268,0,0,0,13277,2021-01-15 19:06:08:129
-0.17,9.781,0.268,0,0,0,13286,2021-01-15 19:06:08:138
-0.177,9.773,0.294,0,0,0,13296,2021-01-15 19:06:08:148
-0.177,9.773,0.294,0,0,0,13306,2021-01-15 19:06:08:158
-0.177,9.773,0.294,0,0,0,13316,2021-01-15 19:06:08:168
-0.177,9.773,0.294,0,0,0,13326,2021-01-15 19:06:08:178
-0.177,9.773,0.294,0,0,0,13336,2021-01-15 19:06:08:188
-0.177,9.773,0.294,0,0,0,13346,2021-01-15 19:06:08:198
-0.177,9.79,0.28,0,0.001,0,13355,2021-01-15 19:06:08:207
-0.177,9.79,0.28,0,0.001,0,13365,2021-01-15 19:06:08:217
-0.177,9.79,0.28,0,0.001,0,13376,2021-01-15 19:06:08:228
-0.177,9.79,0.28,0,0.001,0,13387,2021-01-15 19:06:08:239
-0.177,9.79,0.28,0,0.001,0,13396,2021-01-15 19:06:08:248
-0.177,9.79,0.28,0,0.001,0,13406,2021-01-15 19:06:08:258
-0.163,9.783,0.275,0,0.001,0,13416,2021-01-15 19:06:08:268
-0.163,9.783,0.275,0,0.001,0,13426,2021-01-15 19:06:08:278
-0.163,9.783,0.275,0,0.001,0,13442,2021-01-15 19:06:08:294
-0.163,9.783,0.275,0,0.001,0,13446,2021-01-15 19:06:08:298
-0.163,9.783,0.275,0,0.001,0,13456,2021-01-15 19:06:08:308
-0.163,9.783,0.275,0,0.001,0,13466,2021-01-15 19:06:08:318
-0.158,9.781,0.254,0,0,0,13476,2021-01-15 19:06:08:328
-0.158,9.781,0.254,0,0,0,13486,2021-01-15 19:06:08:338
-0.158,9.781,0.254,0,0,0,13496,2021-01-15 19:06:08:348
-0.158,9.781,0.254,0,0,0,13506,2021-01-15 19:06:08:358
-0.158,9.781,0.254,0,0,0,13516,2021-01-15 19:06:08:368
-0.158,9.781,0.254,0,0,0,13526,2021-01-15 19:06:08:378
-0.158,9.79,0.249,0,0,0,13536,2021-01-15 19:06:08:388
-0.158,9.79,0.249,0,0,0,13546,2021-01-15 19:06:08:398
-0.158,9.79,0.249,0,0,0,13556,2021-01-15 19:06:08:408
-0.158,9.79,0.249,0,0,0,13566,2021-01-15 19:06:08:418
-0.158,9.79,0.249,0,0,0,13575,2021-01-15 19:06:08:427
-0.158,9.79,0.249,0,0,0,13586,2021-01-15 19:06:08:438
-0.153,9.781,0.285,0,0,0,13596,2021-01-15 19:06:08:448
-0.153,9.781,0.285,0,0,0,13605,2021-01-15 19:06:08:457
-0.153,9.781,0.285,0,0,0,13616,2021-01-15 19:06:08:468
-0.153,9.781,0.285,0,0,0,13625,2021-01-15 19:06:08:477
-0.153,9.781,0.285,0,0,0,13636,2021-01-15 19:06:08:488
-0.153,9.781,0.285,0,0,0,13646,2021-01-15 19:06:08:498
-0.163,9.79,0.29,0,0,0,13656,2021-01-15 19:06:08:508
-0.163,9.79,0.29,0,0,0,13666,2021-01-15 19:06:08:518
-0.163,9.79,0.29,0,0,0,13676,2021-01-15 19:06:08:528
-0.163,9.79,0.29,0,0,0,13686,2021-01-15 19:06:08:538
-0.163,9.79,0.29,0,0,0,13696,2021-01-15 19:06:08:548
-0.163,9.79,0.29,0,0,0,13707,2021-01-15 19:06:08:559
-0.158,9.773,0.261,0,0,0,13716,2021-01-15 19:06:08:568
-0.158,9.773,0.261,0,0,0,13726,2021-01-15 19:06:08:578
-0.158,9.773,0.261,0,0,0,13736,2021-01-15 19:06:08:588
-0.158,9.773,0.261,0,0,0,13746,2021-01-15 19:06:08:598
-0.158,9.773,0.261,0,0,0,13755,2021-01-15 19:06:08:607
-0.158,9.773,0.261,0,0,0,13766,2021-01-15 19:06:08:618
-0.165,9.781,0.278,0,0,0,13776,2021-01-15 19:06:08:628
-0.165,9.781,0.278,0,0,0,13786,2021-01-15 19:06:08:638
-0.165,9.781,0.278,0,0,0,13796,2021-01-15 19:06:08:648
-0.165,9.781,0.278,0,0,0,13805,2021-01-15 19:06:08:657
-0.165,9.781,0.278,0,0,0,13816,2021-01-15 19:06:08:668
-0.165,9.781,0.278,0,0,0,13826,2021-01-15 19:06:08:678
-0.158,9.781,0.271,0,0,0,13835,2021-01-15 19:06:08:687
-0.158,9.781,0.271,0,0,0,13846,2021-01-15 19:06:08:698
-0.158,9.781,0.271,0,0,0,13855,2021-01-15 19:06:08:707
-0.158,9.781,0.271,0,0,0,13866,2021-01-15 19:06:08:718
-0.158,9.781,0.271,0,0,0,13876,2021-01-15 19:06:08:728
-0.158,9.781,0.271,0,0,0,13885,2021-01-15 19:06:08:737
-0.153,9.785,0.261,0,0,0,13896,2021-01-15 19:06:08:748
-0.153,9.785,0.261,0,0,0,13906,2021-01-15 19:06:08:758
-0.153,9.785,0.261,0,0,0,13915,2021-01-15 19:06:08:767
-0.153,9.785,0.261,0,0,0,13926,2021-01-15 19:06:08:778
-0.153,9.785,0.261,0,0,0,13935,2021-01-15 19:06:08:787
-0.153,9.785,0.261,0,0,0,13946,2021-01-15 19:06:08:798
-0.151,9.776,0.294,0,0,0,13956,2021-01-15 19:06:08:808
-0.151,9.776,0.294,0,0,0,13966,2021-01-15 19:06:08:818
-0.151,9.776,0.294,0,0,0,13976,2021-01-15 19:06:08:828
-0.151,9.776,0.294,0,0,0,13986,2021-01-15 19:06:08:838
-0.151,9.776,0.294,0,0,0,13996,2021-01-15 19:06:08:848
-0.151,9.776,0.294,0,0,0,14006,2021-01-15 19:06:08:858
-0.16,9.781,0.266,0,0,0,14016,2021-01-15 19:06:08:868
-0.16,9.781,0.266,0,0,0,14026,2021-01-15 19:06:08:878
-0.16,9.781,0.266,0,0,0,14036,2021-01-15 19:06:08:888
-0.16,9.781,0.266,0,0,0,14046,2021-01-15 19:06:08:898
-0.16,9.781,0.266,0,0,0,14056,2021-01-15 19:06:08:908
-0.16,9.781,0.266,0,0,0,14066,2021-01-15 19:06:08:918
-0.158,9.761,0.271,0,0,0,14076,2021-01-15 19:06:08:928
-0.158,9.761,0.271,0,0,0,14086,2021-01-15 19:06:08:938
-0.158,9.761,0.271,0,0,0,14098,2021-01-15 19:06:08:950
-0.158,9.761,0.271,0,0,0,14106,2021-01-15 19:06:08:958
-0.158,9.761,0.271,0,0,0,14115,2021-01-15 19:06:08:967
-0.158,9.761,0.271,0,0,0,14126,2021-01-15 19:06:08:978
-0.163,9.771,0.259,0,0,0,14136,2021-01-15 19:06:08:988
-0.163,9.771,0.259,0,0,0,14145,2021-01-15 19:06:08:997
-0.163,9.771,0.259,0,0,0,14156,2021-01-15 19:06:09:008
-0.163,9.771,0.259,0,0,0,14166,2021-01-15 19:06:09:018
-0.163,9.771,0.259,0,0,0,14176,2021-01-15 19:06:09:028
-0.163,9.771,0.259,0,0,0,14185,2021-01-15 19:06:09:037
-0.172,9.771,0.28,0,0,0,14196,2021-01-15 19:06:09:048
-0.172,9.771,0.28,0,0,0,14206,2021-01-15 19:06:09:058
-0.172,9.771,0.28,0,0,0,14216,2021-01-15 19:06:09:068
-0.172,9.771,0.28,0,0,0,14226,2021-01-15 19:06:09:078
-0.172,9.771,0.28,0,0,0,14236,2021-01-15 19:06:09:088
-0.172,9.771,0.28,0,0,0,14246,2021-01-15 19:06:09:098
-0.151,9.79,0.266,0,0,0,14256,2021-01-15 19:06:09:108
-0.151,9.79,0.266,0,0,0,14266,2021-01-15 19:06:09:118
-0.151,9.79,0.266,0,0,0,14275,2021-01-15 19:06:09:127
-0.151,9.79,0.266,0,0,0,14286,2021-01-15 19:06:09:138
-0.151,9.79,0.266,0,0,0,14296,2021-01-15 19:06:09:148
-0.151,9.79,0.266,0,0,0,14306,2021-01-15 19:06:09:158
-0.163,9.795,0.259,0,0,0,14316,2021-01-15 19:06:09:168
-0.163,9.795,0.259,0,0,0,14325,2021-01-15 19:06:09:177
-0.163,9.795,0.259,0,0,0,14336,2021-01-15 19:06:09:188
-0.163,9.795,0.259,0,0,0,14346,2021-01-15 19:06:09:198
-0.163,9.795,0.259,0,0,0,14356,2021-01-15 19:06:09:208
-0.163,9.795,0.259,0,0,0,14366,2021-01-15 19:06:09:218
-0.168,9.785,0.273,0,0,0,14377,2021-01-15 19:06:09:229
-0.168,9.785,0.273,0,0,0,14387,2021-01-15 19:06:09:239
-0.168,9.785,0.273,0,0,0,14396,2021-01-15 19:06:09:248
-0.168,9.785,0.273,0,0,0,14408,2021-01-15 19:06:09:260
-0.168,9.785,0.273,0,0,0,14415,2021-01-15 19:06:09:267
-0.168,9.785,0.273,0,0,0,14426,2021-01-15 19:06:09:278
-0.158,9.783,0.263,0,0,0,14437,2021-01-15 19:06:09:289
-0.158,9.783,0.263,0,0,0,14447,2021-01-15 19:06:09:299
-0.158,9.783,0.263,0,0,0,14456,2021-01-15 19:06:09:308
-0.158,9.783,0.263,0,0,0,14467,2021-01-15 19:06:09:319
-0.158,9.783,0.263,0,0,0,14477,2021-01-15 19:06:09:329
-0.158,9.783,0.263,0,0,0,14486,2021-01-15 19:06:09:338
-0.175,9.771,0.275,0,0,0,14497,2021-01-15 19:06:09:349
-0.175,9.771,0.275,0,0,0,14506,2021-01-15 19:06:09:358
-0.175,9.771,0.275,0,0,0,14516,2021-01-15 19:06:09:368
-0.175,9.771,0.275,0,0,0,14526,2021-01-15 19:06:09:378
-0.175,9.771,0.275,0,0,0,14536,2021-01-15 19:06:09:388
-0.175,9.771,0.275,0,0,0,14546,2021-01-15 19:06:09:398
-0.172,9.785,0.266,0,0,0,14556,2021-01-15 19:06:09:408
-0.172,9.785,0.266,0,0,0,14566,2021-01-15 19:06:09:418
-0.172,9.785,0.266,0,0,0,14576,2021-01-15 19:06:09:428
-0.172,9.785,0.266,0,0,0,14586,2021-01-15 19:06:09:438
-0.172,9.785,0.266,0,0,0,14596,2021-01-15 19:06:09:448
-0.172,9.785,0.266,0,0,0,14607,2021-01-15 19:06:09:459
-0.16,9.778,0.263,0,0,0,14617,2021-01-15 19:06:09:469
-0.16,9.778,0.263,0,0,0,14626,2021-01-15 19:06:09:478
-0.16,9.778,0.263,0,0,0,14636,2021-01-15 19:06:09:488
-0.16,9.778,0.263,0,0,0,14646,2021-01-15 19:06:09:498
-0.16,9.778,0.263,0,0,0,14656,2021-01-15 19:06:09:508
-0.16,9.778,0.263,0,0,0,14666,2021-01-15 19:06:09:518
-0.156,9.79,0.268,0,-0.001,0,14676,2021-01-15 19:06:09:528
-0.156,9.79,0.268,0,-0.001,0,14687,2021-01-15 19:06:09:539
-0.156,9.79,0.268,0,-0.001,0,14696,2021-01-15 19:06:09:548
-0.156,9.79,0.268,0,-0.001,0,14706,2021-01-15 19:06:09:558
-0.156,9.79,0.268,0,-0.001,0,14716,2021-01-15 19:06:09:568
-0.156,9.79,0.268,0,-0.001,0,14726,2021-01-15 19:06:09:578
-0.156,9.771,0.263,0,-0.001,0,14737,2021-01-15 19:06:09:589
-0.156,9.771,0.263,0,-0.001,0,14747,2021-01-15 19:06:09:599
-0.156,9.771,0.263,0,-0.001,0,14757,2021-01-15 19:06:09:609
-0.156,9.771,0.263,0,-0.001,0,14766,2021-01-15 19:06:09:618
-0.156,9.771,0.263,0,-0.001,0,14776,2021-01-15 19:06:09:628
-0.156,9.771,0.263,0,-0.001,0,14786,2021-01-15 19:06:09:638
-0.17,9.788,0.273,0,0,0,14796,2021-01-15 19:06:09:648
-0.17,9.788,0.273,0,0,0,14806,2021-01-15 19:06:09:658
-0.17,9.788,0.273,0,0,0,14817,2021-01-15 19:06:09:669
-0.17,9.788,0.273,0,0,0,14826,2021-01-15 19:06:09:678
-0.17,9.788,0.273,0,0,0,14836,2021-01-15 19:06:09:688
-0.17,9.788,0.273,0,0,0,14847,2021-01-15 19:06:09:699
-0.18,9.8,0.268,0,0,0,14857,2021-01-15 19:06:09:709
-0.18,9.8,0.268,0,0,0,14866,2021-01-15 19:06:09:718
-0.18,9.8,0.268,0,0,0,14876,2021-01-15 19:06:09:728
-0.18,9.8,0.268,0,0,0,14886,2021-01-15 19:06:09:738
-0.18,9.8,0.268,0,0,0,14897,2021-01-15 19:06:09:749
-0.18,9.8,0.268,0,0,0,14907,2021-01-15 19:06:09:759
-0.148,9.776,0.28,0,0,0,14916,2021-01-15 19:06:09:768
-0.148,9.776,0.28,0,0,0,14926,2021-01-15 19:06:09:778
-0.148,9.776,0.28,0,0,0,14938,2021-01-15 19:06:09:790
-0.148,9.776,0.28,0,0,0,14946,2021-01-15 19:06:09:798
-0.148,9.776,0.28,0,0,0,14957,2021-01-15 19:06:09:809
-0.148,9.776,0.28,0,0,0,14966,2021-01-15 19:06:09:818
-0.172,9.778,0.247,0,0,0,14976,2021-01-15 19:06:09:828
-0.172,9.778,0.247,0,0,0,14986,2021-01-15 19:06:09:838
-0.172,9.778,0.247,0,0,0,14996,2021-01-15 19:06:09:848
-0.172,9.778,0.247,0,0,0,15006,2021-01-15 19:06:09:858
-0.172,9.778,0.247,0,0,0,15016,2021-01-15 19:06:09:868
-0.172,9.778,0.247,0,0,0,15026,2021-01-15 19:06:09:878
-0.165,9.773,0.254,0,0,0,15035,2021-01-15 19:06:09:887
-0.165,9.773,0.254,0,0,0,15046,2021-01-15 19:06:09:898
-0.165,9.773,0.254,0,0,0,15056,2021-01-15 19:06:09:908
-0.165,9.773,0.254,0,0,0,15066,2021-01-15 19:06:09:918
-0.165,9.773,0.254,0,0,0,15076,2021-01-15 19:06:09:928
-0.165,9.773,0.254,0,0,0,15086,2021-01-15 19:06:09:938
-0.17,9.783,0.275,0,0,0,15096,2021-01-15 19:06:09:948
-0.17,9.783,0.275,0,0,0,15106,2021-01-15 19:06:09:958
-0.17,9.783,0.275,0,0,0,15116,2021-01-15 19:06:09:968
-0.17,9.783,0.275,0,0,0,15125,2021-01-15 19:06:09:977
-0.17,9.783,0.275,0,0,0,15136,2021-01-15 19:06:09:988
-0.17,9.783,0.275,0,0,0,15146,2021-01-15 19:06:09:998
-0.156,9.761,0.28,0,0,0,15156,2021-01-15 19:06:10:008
-0.156,9.761,0.28,0,0,0,15166,2021-01-15 19:06:10:018
-0.156,9.761,0.28,0,0,0,15178,2021-01-15 19:06:10:030
-0.156,9.761,0.28,0,0,0,15186,2021-01-15 19:06:10:038
-0.156,9.761,0.28,0,0,0,15196,2021-01-15 19:06:10:048
-0.156,9.761,0.28,0,0,0,15206,2021-01-15 19:06:10:058
-0.16,9.769,0.266,0,0,0,15216,2021-01-15 19:06:10:068
-0.16,9.769,0.266,0,0,0,15227,2021-01-15 19:06:10:079
-0.16,9.769,0.266,0,0,0,15236,2021-01-15 19:06:10:088
-0.16,9.769,0.266,0,0,0,15246,2021-01-15 19:06:10:098
-0.16,9.769,0.266,0,0,0,15256,2021-01-15 19:06:10:108
-0.16,9.769,0.266,0,0,0,15266,2021-01-15 19:06:10:118
-0.146,9.781,0.285,0,0,0,15276,2021-01-15 19:06:10:128
-0.146,9.781,0.285,0,0,0,15287,2021-01-15 19:06:10:139
-0.146,9.781,0.285,0,0,0,15297,2021-01-15 19:06:10:149
-0.146,9.781,0.285,0,0,0,15306,2021-01-15 19:06:10:158
-0.146,9.781,0.285,0,0,0,15316,2021-01-15 19:06:10:168
-0.146,9.781,0.285,0,0,0,15326,2021-01-15 19:06:10:178
-0.156,9.761,0.268,0,0,0,15336,2021-01-15 19:06:10:188
-0.156,9.761,0.268,0,0,0,15349,2021-01-15 19:06:10:201
-0.156,9.761,0.268,0,0,0,15355,2021-01-15 19:06:10:207
-0.156,9.761,0.268,0,0,0,15367,2021-01-15 19:06:10:219
-0.156,9.761,0.268,0,0,0,15376,2021-01-15 19:06:10:228
-0.156,9.761,0.268,0,0,0,15386,2021-01-15 19:06:10:238
-0.163,9.781,0.249,0,0,0,15396,2021-01-15 19:06:10:248
-0.163,9.781,0.249,0,0,0,15407,2021-01-15 19:06:10:259
-0.163,9.781,0.249,0,0,0,15416,2021-01-15 19:06:10:268
-0.163,9.781,0.249,0,0,0,15426,2021-01-15 19:06:10:278
-0.163,9.781,0.249,0,0,0,15436,2021-01-15 19:06:10:288
-0.163,9.781,0.249,0,0,0,15450,2021-01-15 19:06:10:302
-0.16,9.771,0.256,0,0,0,15456,2021-01-15 19:06:10:308
-0.16,9.771,0.256,0,0,0,15469,2021-01-15 19:06:10:321
-0.16,9.771,0.256,0,0,0,15476,2021-01-15 19:06:10:328
-0.16,9.771,0.256,0,0,0,15486,2021-01-15 19:06:10:338
-0.16,9.771,0.256,0,0,0,15496,2021-01-15 19:06:10:348
-0.16,9.771,0.256,0,0,0,15506,2021-01-15 19:06:10:358
-0.156,9.769,0.275,0,0.001,0,15516,2021-01-15 19:06:10:368
-0.156,9.769,0.275,0,0.001,0,15526,2021-01-15 19:06:10:378
-0.156,9.769,0.275,0,0.001,0,15536,2021-01-15 19:06:10:388
-0.156,9.769,0.275,0,0.001,0,15547,2021-01-15 19:06:10:399
-0.156,9.769,0.275,0,0.001,0,15556,2021-01-15 19:06:10:408
-0.156,9.769,0.275,0,0.001,0,15566,2021-01-15 19:06:10:418
-0.158,9.785,0.275,0,0.001,0,15576,2021-01-15 19:06:10:428
-0.158,9.785,0.275,0,0.001,0,15586,2021-01-15 19:06:10:438
-0.158,9.785,0.275,0,0.001,0,15598,2021-01-15 19:06:10:450
-0.158,9.785,0.275,0,0.001,0,15606,2021-01-15 19:06:10:458
-0.158,9.785,0.275,0,0.001,0,15616,2021-01-15 19:06:10:468
-0.158,9.785,0.275,0,0.001,0,15626,2021-01-15 19:06:10:478
-0.163,9.8,0.266,0,0,0,15638,2021-01-15 19:06:10:490
-0.163,9.8,0.266,0,0,0,15646,2021-01-15 19:06:10:498
-0.163,9.8,0.266,0,0,0,15660,2021-01-15 19:06:10:512
-0.163,9.8,0.266,0,0,0,15666,2021-01-15 19:06:10:518
-0.163,9.8,0.266,0,0,0,15676,2021-01-15 19:06:10:528
-0.163,9.8,0.266,0,0,0,15685,2021-01-15 19:06:10:537
-0.156,9.778,0.28,0,0,0,15696,2021-01-15 19:06:10:548
-0.156,9.778,0.28,0,0,0,15710,2021-01-15 19:06:10:562
-0.156,9.778,0.28,0,0,0,15716,2021-01-15 19:06:10:568
-0.156,9.778,0.28,0,0,0,15726,2021-01-15 19:06:10:578
-0.156,9.778,0.28,0,0,0,15742,2021-01-15 19:06:10:594
-0.156,9.778,0.28,0,0,0,15746,2021-01-15 19:06:10:598
-0.182,9.778,0.263,0,0,0,15756,2021-01-15 19:06:10:608
-0.182,9.778,0.263,0,0,0,15767,2021-01-15 19:06:10:619
-0.182,9.778,0.263,0,0,0,15776,2021-01-15 19:06:10:628
-0.182,9.778,0.263,0,0,0,15789,2021-01-15 19:06:10:641
-0.182,9.778,0.263,0,0,0,15795,2021-01-15 19:06:10:647
-0.182,9.778,0.263,0,0,0,15806,2021-01-15 19:06:10:658
-0.165,9.771,0.273,0,0,0,15818,2021-01-15 19:06:10:670
-0.165,9.771,0.273,0,0,0,15826,2021-01-15 19:06:10:678
-0.165,9.771,0.273,0,0,0,15837,2021-01-15 19:06:10:689
-0.165,9.771,0.273,0,0,0,15846,2021-01-15 19:06:10:698
-0.165,9.771,0.273,0,0,0,15856,2021-01-15 19:06:10:708
-0.165,9.771,0.273,0,0,0,15866,2021-01-15 19:06:10:718
-0.172,9.783,0.266,0,0,0,15876,2021-01-15 19:06:10:728
-0.172,9.783,0.266,0,0,0,15886,2021-01-15 19:06:10:738
-0.172,9.783,0.266,0,0,0,15896,2021-01-15 19:06:10:748
-0.172,9.783,0.266,0,0,0,15906,2021-01-15 19:06:10:758
-0.172,9.783,0.266,0,0,0,15916,2021-01-15 19:06:10:768
-0.172,9.783,0.266,0,0,0,15926,2021-01-15 19:06:10:778
-0.158,9.773,0.275,0,0,0,15936,2021-01-15 19:06:10:788
-0.158,9.773,0.275,0,0,0,15947,2021-01-15 19:06:10:799
-0.158,9.773,0.275,0,0,0,15955,2021-01-15 19:06:10:807
-0.158,9.773,0.275,0,0,0,15966,2021-01-15 19:06:10:818
-0.158,9.773,0.275,0,0,0,15976,2021-01-15 19:06:10:828
-0.158,9.773,0.275,0,0,0,15986,2021-01-15 19:06:10:838
-0.163,9.783,0.294,0,0,0,15996,2021-01-15 19:06:10:848
-0.163,9.783,0.294,0,0,0,16006,2021-01-15 19:06:10:858
-0.163,9.783,0.294,0,0,0,16016,2021-01-15 19:06:10:868
-0.163,9.783,0.294,0,0,0,16026,2021-01-15 19:06:10:878
-0.163,9.783,0.294,0,0,0,16036,2021-01-15 19:06:10:888
-0.163,9.783,0.294,0,0,0,16046,2021-01-15 19:06:10:898
-0.146,9.771,0.278,0,0,0,16056,2021-01-15 19:06:10:908
-0.146,9.771,0.278,0,0,0,16069,2021-01-15 19:06:10:921
-0.146,9.771,0.278,0,0,0,16081,2021-01-15 19:06:10:933
-0.146,9.771,0.278,0,0,0,16086,2021-01-15 19:06:10:938
-0.146,9.771,0.278,0,0,0,16096,2021-01-15 19:06:10:948
-0.146,9.771,0.278,0,0,0,16107,2021-01-15 19:06:10:959
-0.153,9.793,0.283,0,0,0,16116,2021-01-15 19:06:10:968
-0.153,9.793,0.283,0,0,0,16126,2021-01-15 19:06:10:978
-0.153,9.793,0.283,0,0,0,16138,2021-01-15 19:06:10:990
-0.153,9.793,0.283,0,0,0,16146,2021-01-15 19:06:10:998
-0.153,9.793,0.283,0,0,0,16156,2021-01-15 19:06:11:008
-0.153,9.793,0.283,0,0,0,16167,2021-01-15 19:06:11:019
-0.165,9.785,0.283,0,0,0,16176,2021-01-15 19:06:11:028
-0.165,9.785,0.283,0,0,0,16186,2021-01-15 19:06:11:038
-0.165,9.785,0.283,0,0,0,16197,2021-01-15 19:06:11:049
-0.165,9.785,0.283,0,0,0,16206,2021-01-15 19:06:11:058
-0.165,9.785,0.283,0,0,0,16216,2021-01-15 19:06:11:068
-0.165,9.785,0.283,0,0,0,16226,2021-01-15 19:06:11:078
-0.18,9.766,0.251,0,0.001,0,16236,2021-01-15 19:06:11:088
-0.18,9.766,0.251,0,0.001,0,16247,2021-01-15 19:06:11:099
-0.18,9.766,0.251,0,0.001,0,16256,2021-01-15 19:06:11:108
-0.18,9.766,0.251,0,0.001,0,16266,2021-01-15 19:06:11:118
-0.18,9.766,0.251,0,0.001,0,16276,2021-01-15 19:06:11:128
-0.18,9.766,0.251,0,0.001,0,16286,2021-01-15 19:06:11:138
-0.16,9.778,0.287,0,0.001,0,16296,2021-01-15 19:06:11:148
-0.16,9.778,0.287,0,0.001,0,16306,2021-01-15 19:06:11:158
-0.16,9.778,0.287,0,0.001,0,16316,2021-01-15 19:06:11:168
-0.16,9.778,0.287,0,0.001,0,16326,2021-01-15 19:06:11:178
-0.16,9.778,0.287,0,0.001,0,16336,2021-01-15 19:06:11:188
-0.16,9.778,0.287,0,0.001,0,16346,2021-01-15 19:06:11:198
-0.16,9.766,0.278,0,0,0,16356,2021-01-15 19:06:11:208
-0.16,9.766,0.278,0,0,0,16366,2021-01-15 19:06:11:218
-0.16,9.766,0.278,0,0,0,16376,2021-01-15 19:06:11:228
-0.16,9.766,0.278,0,0,0,16393,2021-01-15 19:06:11:245
-0.16,9.766,0.278,0,0,0,16396,2021-01-15 19:06:11:248
-0.16,9.766,0.278,0,0,0,16406,2021-01-15 19:06:11:258
-0.153,9.778,0.275,0,0,0,16416,2021-01-15 19:06:11:268
-0.153,9.778,0.275,0,0,0,16426,2021-01-15 19:06:11:278
-0.153,9.778,0.275,0,0,0,16436,2021-01-15 19:06:11:288
-0.153,9.778,0.275,0,0,0,16446,2021-01-15 19:06:11:298
-0.153,9.778,0.275,0,0,0,16458,2021-01-15 19:06:11:310
-0.153,9.778,0.275,0,0,0,16466,2021-01-15 19:06:11:318
-0.153,9.778,0.275,0,0,0,16476,2021-01-15 19:06:11:328
-0.163,9.766,0.29,0,0.001,0,16486,2021-01-15 19:06:11:338
-0.163,9.766,0.29,0,0.001,0,16497,2021-01-15 19:06:11:349
-0.163,9.766,0.29,0,0.001,0,16507,2021-01-15 19:06:11:359
-0.163,9.766,0.29,0,0.001,0,16515,2021-01-15 19:06:11:367
-0.163,9.766,0.29,0,0.001,0,16525,2021-01-15 19:06:11:377
-0.163,9.766,0.29,0,0.001,0,16536,2021-01-15 19:06:11:388
-0.165,9.771,0.256,0,0.001,0,16547,2021-01-15 19:06:11:399
-0.165,9.771,0.256,0,0.001,0,16557,2021-01-15 19:06:11:409
-0.165,9.771,0.256,0,0.001,0,16566,2021-01-15 19:06:11:418
-0.165,9.771,0.256,0,0.001,0,16576,2021-01-15 19:06:11:428
-0.165,9.771,0.256,0,0.001,0,16586,2021-01-15 19:06:11:438
-0.165,9.771,0.256,0,0,0,16595,2021-01-15 19:06:11:447
-0.163,9.766,0.273,0,0,0,16606,2021-01-15 19:06:11:458
-0.163,9.766,0.273,0,0,0,16616,2021-01-15 19:06:11:468
-0.163,9.766,0.273,0,0,0,16625,2021-01-15 19:06:11:477
-0.163,9.766,0.273,0,0,0,16637,2021-01-15 19:06:11:489
-0.163,9.766,0.273,0,0,0,16646,2021-01-15 19:06:11:498
-0.163,9.766,0.273,0,0,0,16656,2021-01-15 19:06:11:508
-0.151,9.761,0.273,0,0,0,16666,2021-01-15 19:06:11:518
-0.151,9.761,0.273,0,0,0,16676,2021-01-15 19:06:11:528
-0.151,9.761,0.273,0,0,0,16686,2021-01-15 19:06:11:538
-0.151,9.761,0.273,0,0,0,16696,2021-01-15 19:06:11:548
-0.151,9.761,0.273,0,0,0,16706,2021-01-15 19:06:11:558
-0.151,9.761,0.273,0,0,0,16715,2021-01-15 19:06:11:567
-0.172,9.778,0.275,0,0,0,16726,2021-01-15 19:06:11:578
-0.172,9.778,0.275,0,0,0,16736,2021-01-15 19:06:11:588
-0.172,9.778,0.275,0,0,0,16746,2021-01-15 19:06:11:598
-0.172,9.778,0.275,0,0,0,16756,2021-01-15 19:06:11:608
-0.172,9.778,0.275,0,0,0,16766,2021-01-15 19:06:11:618
-0.172,9.778,0.275,0,0,0,16776,2021-01-15 19:06:11:628
-0.172,9.778,0.275,0,0,0,16786,2021-01-15 19:06:11:638
-0.175,9.778,0.268,0,0,0,16796,2021-01-15 19:06:11:648
-0.175,9.778,0.268,0,0,0,16805,2021-01-15 19:06:11:657
-0.175,9.778,0.268,0,0,0,16816,2021-01-15 19:06:11:668
-0.175,9.778,0.268,0,0,0,16826,2021-01-15 19:06:11:678
-0.175,9.778,0.268,0,0,0,16837,2021-01-15 19:06:11:689
-0.151,9.771,0.266,0,0,0,16846,2021-01-15 19:06:11:698
-0.151,9.771,0.266,0,0,0,16855,2021-01-15 19:06:11:707
-0.151,9.771,0.266,0,0,0,16866,2021-01-15 19:06:11:718
-0.151,9.771,0.266,0,0,0,16876,2021-01-15 19:06:11:728
-0.151,9.771,0.266,0,0,0,16885,2021-01-15 19:06:11:737
-0.151,9.771,0.266,0,0,0,16896,2021-01-15 19:06:11:748
-0.182,9.766,0.256,0,0,0,16906,2021-01-15 19:06:11:758
-0.182,9.766,0.256,0,0,0,16915,2021-01-15 19:06:11:767
-0.182,9.766,0.256,0,0,0,16926,2021-01-15 19:06:11:778
-0.182,9.766,0.256,0,0,0,16936,2021-01-15 19:06:11:788
-0.182,9.766,0.256,0,0,0,16946,2021-01-15 19:06:11:798
-0.182,9.766,0.256,0,0.001,0,16955,2021-01-15 19:06:11:807
-0.182,9.766,0.256,0,0.001,0,16966,2021-01-15 19:06:11:818
-0.141,9.769,0.259,0,0.001,0,16976,2021-01-15 19:06:11:828
-0.141,9.769,0.259,0,0.001,0,16988,2021-01-15 19:06:11:840
-0.141,9.769,0.259,0,0.001,0,16997,2021-01-15 19:06:11:849
-0.141,9.769,0.259,0,0.001,0,17008,2021-01-15 19:06:11:860
-0.141,9.769,0.259,0,0.001,0,17016,2021-01-15 19:06:11:868
-0.141,9.769,0.259,0,0.001,0,17026,2021-01-15 19:06:11:878
-0.158,9.776,0.287,0,0.001,0,17036,2021-01-15 19:06:11:888
-0.158,9.776,0.287,0,0.001,0,17046,2021-01-15 19:06:11:898
-0.158,9.776,0.287,0,0.001,0,17056,2021-01-15 19:06:11:908
-0.158,9.776,0.287,0,0.001,0,17066,2021-01-15 19:06:11:918
-0.158,9.776,0.287,0,0,0,17076,2021-01-15 19:06:11:928
-0.158,9.776,0.287,0,0,0,17086,2021-01-15 19:06:11:938
-0.163,9.771,0.29,0,0,0,17096,2021-01-15 19:06:11:948
-0.163,9.771,0.29,0,0,0,17109,2021-01-15 19:06:11:961
-0.163,9.771,0.29,0,0,0,17116,2021-01-15 19:06:11:968
-0.163,9.771,0.29,0,0,0,17126,2021-01-15 19:06:11:978
-0.163,9.771,0.29,0,0,0,17143,2021-01-15 19:06:11:995
-0.163,9.771,0.29,0,0,0,17146,2021-01-15 19:06:11:998
-0.163,9.771,0.29,0,0,0,17156,2021-01-15 19:06:12:008
-0.163,9.771,0.29,0,0,0,17166,2021-01-15 19:06:12:018
-0.141,9.771,0.268,0,0,0,17176,2021-01-15 19:06:12:028
-0.141,9.771,0.268,0,0,0,17186,2021-01-15 19:06:12:038
-0.141,9.771,0.268,0,0,0,17196,2021-01-15 19:06:12:048
-0.141,9.771,0.268,0,0,0,17207,2021-01-15 19:06:12:059
-0.141,9.771,0.268,0,0,0,17216,2021-01-15 19:06:12:068
-0.141,9.771,0.268,0,0,0,17227,2021-01-15 19:06:12:079
-0.139,9.776,0.261,0,0,0,17236,2021-01-15 19:06:12:088
-0.139,9.776,0.261,0,0,0,17246,2021-01-15 19:06:12:098
-0.139,9.776,0.261,0,0,0,17256,2021-01-15 19:06:12:108
-0.139,9.776,0.261,0,0,0,17267,2021-01-15 19:06:12:119
-0.139,9.776,0.261,0,0,0,17277,2021-01-15 19:06:12:129
-0.163,9.769,0.283,0,0,0,17290,2021-01-15 19:06:12:142
-0.163,9.769,0.283,0,0,0,17296,2021-01-15 19:06:12:148
-0.163,9.769,0.283,0,0,0,17306,2021-01-15 19:06:12:158
-0.163,9.769,0.283,0,0,0,17316,2021-01-15 19:06:12:168
-0.163,9.769,0.283,0,0,0,17329,2021-01-15 19:06:12:181
-0.163,9.769,0.283,0,0,0,17336,2021-01-15 19:06:12:188
-0.163,9.769,0.283,0,0,0,17347,2021-01-15 19:06:12:199
-0.153,9.761,0.254,0,0,0,17356,2021-01-15 19:06:12:208
-0.153,9.761,0.254,0,0,0,17366,2021-01-15 19:06:12:218
-0.153,9.761,0.254,0,0,0,17375,2021-01-15 19:06:12:227
-0.153,9.761,0.254,0,0,0,17386,2021-01-15 19:06:12:238
-0.153,9.761,0.254,0,0,0,17396,2021-01-15 19:06:12:248
-0.153,9.761,0.254,0,0,0,17406,2021-01-15 19:06:12:258
-0.151,9.764,0.28,0,0,0,17416,2021-01-15 19:06:12:268
-0.151,9.764,0.28,0,0,0,17426,2021-01-15 19:06:12:278
-0.151,9.764,0.28,0,0,0,17436,2021-01-15 19:06:12:288
-0.151,9.764,0.28,0,0,0,17446,2021-01-15 19:06:12:298
-0.151,9.764,0.28,0,0,0,17457,2021-01-15 19:06:12:309
-0.151,9.764,0.28,0,0,0,17466,2021-01-15 19:06:12:318
-0.16,9.766,0.292,0,0,0,17476,2021-01-15 19:06:12:328
-0.16,9.766,0.292,0,0,0,17485,2021-01-15 19:06:12:337
-0.16,9.766,0.292,0,0,0,17496,2021-01-15 19:06:12:348
-0.16,9.766,0.292,0,0,0,17511,2021-01-15 19:06:12:363
-0.16,9.766,0.292,0,0,0,17517,2021-01-15 19:06:12:369
-0.16,9.766,0.292,0,0,0,17526,2021-01-15 19:06:12:378
-0.163,9.776,0.271,0,0,0,17535,2021-01-15 19:06:12:387
-0.163,9.776,0.271,0,0,0,17546,2021-01-15 19:06:12:398
-0.163,9.776,0.271,0,0,0,17556,2021-01-15 19:06:12:408
-0.163,9.776,0.271,0,0,0,17566,2021-01-15 19:06:12:418
-0.163,9.776,0.271,0,0,0,17577,2021-01-15 19:06:12:429
-0.163,9.776,0.271,0,0,0,17586,2021-01-15 19:06:12:438
-0.163,9.776,0.268,0,0,0,17598,2021-01-15 19:06:12:450
-0.163,9.776,0.268,0,0,0,17606,2021-01-15 19:06:12:458
-0.163,9.776,0.268,0,0,0,17616,2021-01-15 19:06:12:468
-0.163,9.776,0.268,0,0,0,17627,2021-01-15 19:06:12:479
-0.163,9.776,0.268,0,0,0,17636,2021-01-15 19:06:12:488
-0.163,9.776,0.268,0,0,0,17646,2021-01-15 19:06:12:498
-0.156,9.783,0.266,0,0,0,17656,2021-01-15 19:06:12:508
-0.156,9.783,0.266,0,0,0,17666,2021-01-15 19:06:12:518
-0.156,9.783,0.266,0,0,0,17677,2021-01-15 19:06:12:529
-0.156,9.783,0.266,0,0,0,17686,2021-01-15 19:06:12:538
-0.156,9.783,0.266,0,0,0,17699,2021-01-15 19:06:12:551
-0.156,9.783,0.266,0,0,0,17708,2021-01-15 19:06:12:560
-0.172,9.781,0.28,0,0,0,17715,2021-01-15 19:06:12:567
-0.172,9.781,0.28,0,0,0,17727,2021-01-15 19:06:12:579
-0.172,9.781,0.28,0,0,0,17736,2021-01-15 19:06:12:588
-0.172,9.781,0.28,0,0,0,17746,2021-01-15 19:06:12:598
-0.172,9.781,0.28,0,0,0,17757,2021-01-15 19:06:12:609
-0.172,9.781,0.28,0,0,0,17766,2021-01-15 19:06:12:618
-0.153,9.764,0.283,0,0,0,17776,2021-01-15 19:06:12:628
-0.153,9.764,0.283,0,0,0,17786,2021-01-15 19:06:12:638
-0.153,9.764,0.283,0,0.001,0,17796,2021-01-15 19:06:12:648
-0.153,9.764,0.283,0,0.001,0,17813,2021-01-15 19:06:12:665
-0.153,9.764,0.283,0,0.001,0,17816,2021-01-15 19:06:12:668
-0.16,9.759,0.259,0,0.001,0,17829,2021-01-15 19:06:12:681
-0.16,9.759,0.259,0,0.001,0,17836,2021-01-15 19:06:12:688
-0.16,9.759,0.259,0,0.001,0,17846,2021-01-15 19:06:12:698
-0.16,9.759,0.259,0,0.001,0,17855,2021-01-15 19:06:12:707
-0.16,9.759,0.259,0,0.001,0,17866,2021-01-15 19:06:12:718
-0.16,9.759,0.259,0,0.001,0,17876,2021-01-15 19:06:12:728
-0.16,9.759,0.259,0,0.001,0,17886,2021-01-15 19:06:12:738
-0.146,9.778,0.259,0,0.001,0,17896,2021-01-15 19:06:12:748
-0.146,9.778,0.259,0,0.001,0,17905,2021-01-15 19:06:12:757
-0.146,9.778,0.259,0,0,0,17917,2021-01-15 19:06:12:769
-0.146,9.778,0.259,0,0,0,17926,2021-01-15 19:06:12:778
-0.146,9.778,0.259,0,0,0,17936,2021-01-15 19:06:12:788
-0.146,9.778,0.259,0,0,0,17946,2021-01-15 19:06:12:798
-0.146,9.778,0.259,0,0,0,17957,2021-01-15 19:06:12:809
-0.146,9.778,0.259,0,0,0,17966,2021-01-15 19:06:12:818
-0.156,9.769,0.249,0,0,0,17976,2021-01-15 19:06:12:828
-0.156,9.769,0.249,0,0,0,17986,2021-01-15 19:06:12:838
-0.156,9.769,0.249,0,0,0,17996,2021-01-15 19:06:12:848
-0.156,9.769,0.249,0,0,0,18008,2021-01-15 19:06:12:860
-0.156,9.769,0.249,0,0,0,18016,2021-01-15 19:06:12:868
-0.156,9.769,0.249,0,0,0,18028,2021-01-15 19:06:12:880
-0.165,9.773,0.266,0,0,0,18036,2021-01-15 19:06:12:888
-0.165,9.773,0.266,0,0,0,18046,2021-01-15 19:06:12:898
-0.165,9.773,0.266,0,0,0,18061,2021-01-15 19:06:12:913
-0.165,9.773,0.266,0,0,0,18066,2021-01-15 19:06:12:918
-0.165,9.773,0.266,0,0,0,18076,2021-01-15 19:06:12:928
-0.165,9.773,0.266,0,0,0,18086,2021-01-15 19:06:12:938
-0.158,9.771,0.261,0,0,0,18096,2021-01-15 19:06:12:948
-0.158,9.771,0.261,0,0,0,18106,2021-01-15 19:06:12:958
-0.158,9.771,0.261,0,0,0,18116,2021-01-15 19:06:12:968
-0.158,9.771,0.261,0,0,0,18131,2021-01-15 19:06:12:983
-0.158,9.771,0.261,0,0,0,18136,2021-01-15 19:06:12:988
-0.158,9.771,0.261,0,0,0,18146,2021-01-15 19:06:12:998
-0.148,9.783,0.273,0,0.001,0,18156,2021-01-15 19:06:13:008
-0.148,9.783,0.273,0,0.001,0,18166,2021-01-15 19:06:13:018
-0.148,9.783,0.273,0,0.001,0,18176,2021-01-15 19:06:13:028
-0.148,9.783,0.273,0,0.001,0,18186,2021-01-15 19:06:13:038
-0.148,9.783,0.273,0,0.001,0,18196,2021-01-15 19:06:13:048
-0.148,9.783,0.273,0,0.001,0,18206,2021-01-15 19:06:13:058
-0.151,9.759,0.254,0,0.001,0,18217,2021-01-15 19:06:13:069
-0.151,9.759,0.254,0,0.001,0,18226,2021-01-15 19:06:13:078
-0.151,9.759,0.254,0,0.001,0,18236,2021-01-15 19:06:13:088
-0.151,9.759,0.254,0,0.001,0,18245,2021-01-15 19:06:13:097
-0.151,9.759,0.254,0,0.001,0,18257,2021-01-15 19:06:13:109
-0.151,9.759,0.254,0,0.001,0,18266,2021-01-15 19:06:13:118
-0.177,9.783,0.278,0,0.001,0,18277,2021-01-15 19:06:13:129
-0.177,9.783,0.278,0,0.001,0,18286,2021-01-15 19:06:13:138
-0.177,9.783,0.278,0,0.001,0,18296,2021-01-15 19:06:13:148
-0.177,9.783,0.278,0,0.001,0,18308,2021-01-15 19:06:13:160
-0.177,9.783,0.278,0,0.001,0,18317,2021-01-15 19:06:13:169
-0.163,9.788,0.271,0,0.001,0,18335,2021-01-15 19:06:13:187
-0.163,9.788,0.271,0,0.001,0,18336,2021-01-15 19:06:13:188
-0.163,9.788,0.271,0,0.001,0,18350,2021-01-15 19:06:13:202
-0.163,9.788,0.271,0,0.001,0,18356,2021-01-15 19:06:13:208
-0.163,9.788,0.271,0,0.001,0,18366,2021-01-15 19:06:13:218
-0.163,9.788,0.271,0,0.001,0,18376,2021-01-15 19:06:13:228
-0.163,9.788,0.271,0,0.001,0,18387,2021-01-15 19:06:13:239
-0.16,9.757,0.287,0,0,0,18396,2021-01-15 19:06:13:248
-0.16,9.757,0.287,0,0,0,18407,2021-01-15 19:06:13:259
-0.16,9.757,0.287,0,0,0,18416,2021-01-15 19:06:13:268
-0.16,9.757,0.287,0,0,0,18428,2021-01-15 19:06:13:280
-0.16,9.757,0.287,0,0,0,18441,2021-01-15 19:06:13:293
-0.16,9.757,0.287,0,0,0,18446,2021-01-15 19:06:13:298
-0.146,9.785,0.275,0,0,0,18458,2021-01-15 19:06:13:310
-0.146,9.785,0.275,0,0,0,18468,2021-01-15 19:06:13:320
-0.146,9.785,0.275,0,0,0,18476,2021-01-15 19:06:13:328
-0.146,9.785,0.275,0,0,0,18486,2021-01-15 19:06:13:338
-0.146,9.785,0.275,0,0,0,18496,2021-01-15 19:06:13:348
-0.146,9.785,0.275,0,0,0,18506,2021-01-15 19:06:13:358
-0.187,9.783,0.283,0,0,0,18517,2021-01-15 19:06:13:369
-0.187,9.783,0.283,0,0,0,18530,2021-01-15 19:06:13:382
-0.187,9.783,0.283,0,0,0,18536,2021-01-15 19:06:13:388
-0.187,9.783,0.283,0,0,0,18550,2021-01-15 19:06:13:402
-0.187,9.783,0.283,0,0,0,18556,2021-01-15 19:06:13:408
-0.187,9.783,0.283,0,0,0,18567,2021-01-15 19:06:13:419
-0.187,9.783,0.283,0,0,0,18577,2021-01-15 19:06:13:429
-0.158,9.79,0.29,0,0,0,18587,2021-01-15 19:06:13:439
-0.158,9.79,0.29,0,0,0,18596,2021-01-15 19:06:13:448
-0.158,9.79,0.29,0,0,0,18607,2021-01-15 19:06:13:459
-0.158,9.79,0.29,0,0,0,18616,2021-01-15 19:06:13:468
-0.158,9.79,0.29,0,0,0,18627,2021-01-15 19:06:13:479
-0.158,9.79,0.29,0,0,0,18636,2021-01-15 19:06:13:488
-0.158,9.79,0.29,0,0,0,18647,2021-01-15 19:06:13:499
-0.158,9.79,0.29,0,0,0,18656,2021-01-15 19:06:13:508
-0.168,9.785,0.259,0,0,0,18666,2021-01-15 19:06:13:518
-0.168,9.785,0.259,0,0,0,18676,2021-01-15 19:06:13:528
-0.168,9.785,0.259,0,0,0,18685,2021-01-15 19:06:13:537
-0.168,9.785,0.259,0,0,0,18696,2021-01-15 19:06:13:548
-0.168,9.785,0.259,0,0,0,18706,2021-01-15 19:06:13:558
-0.168,9.785,0.259,0,0,0,18716,2021-01-15 19:06:13:568
-0.16,9.773,0.261,0,0,0,18726,2021-01-15 19:06:13:578
-0.16,9.773,0.261,0,0,0,18735,2021-01-15 19:06:13:587
-0.16,9.773,0.261,0,0,0,18746,2021-01-15 19:06:13:598
-0.16,9.773,0.261,0,0,0,18756,2021-01-15 19:06:13:608
-0.16,9.773,0.261,0,0,0,18767,2021-01-15 19:06:13:619
-0.16,9.773,0.261,0,0,0,18777,2021-01-15 19:06:13:629
-0.153,9.785,0.263,0,0,0,18786,2021-01-15 19:06:13:638
-0.153,9.785,0.263,0,0,0,18796,2021-01-15 19:06:13:648
-0.153,9.785,0.263,0,0,0,18808,2021-01-15 19:06:13:660
-0.153,9.785,0.263,0,0,0,18816,2021-01-15 19:06:13:668
-0.153,9.785,0.263,0,0,0,18828,2021-01-15 19:06:13:680
-0.153,9.785,0.263,0,0,0,18836,2021-01-15 19:06:13:688
-0.153,9.785,0.263,0,0,0,18846,2021-01-15 19:06:13:698
-0.158,9.771,0.261,0,0,0,18856,2021-01-15 19:06:13:708
-0.158,9.771,0.261,0,0,0,18867,2021-01-15 19:06:13:719
-0.158,9.771,0.261,0,0,0,18876,2021-01-15 19:06:13:728
-0.158,9.771,0.261,0,0,0,18886,2021-01-15 19:06:13:738
-0.158,9.771,0.261,0,0,0,18896,2021-01-15 19:06:13:748
-0.158,9.771,0.261,0,0,0,18906,2021-01-15 19:06:13:758
-0.165,9.783,0.254,0,0,0,18916,2021-01-15 19:06:13:768
-0.165,9.783,0.254,0,0,0,18926,2021-01-15 19:06:13:778
-0.165,9.783,0.254,0,0,0,18936,2021-01-15 19:06:13:788
-0.165,9.783,0.254,0,0,0,18946,2021-01-15 19:06:13:798
-0.165,9.783,0.254,0,0,0,18956,2021-01-15 19:06:13:808
-0.165,9.783,0.254,0,0,0,18966,2021-01-15 19:06:13:818
-0.156,9.783,0.28,0,0,0,18976,2021-01-15 19:06:13:828
-0.156,9.783,0.28,0,0,0,18986,2021-01-15 19:06:13:838
-0.156,9.783,0.28,0,0,0,18996,2021-01-15 19:06:13:848
-0.156,9.783,0.28,0,0,0,19006,2021-01-15 19:06:13:858
-0.156,9.783,0.28,0,0,0,19016,2021-01-15 19:06:13:868
-0.156,9.783,0.28,0,0,0,19026,2021-01-15 19:06:13:878
-0.168,9.778,0.273,0,0,0,19036,2021-01-15 19:06:13:888
-0.168,9.778,0.273,0,0,0,19048,2021-01-15 19:06:13:900
-0.168,9.778,0.273,0,0,0,19056,2021-01-15 19:06:13:908
-0.168,9.778,0.273,0,0,0,19066,2021-01-15 19:06:13:918
-0.168,9.778,0.273,0,0,0,19079,2021-01-15 19:06:13:931
-0.168,9.778,0.273,0,0,0,19086,2021-01-15 19:06:13:938
-0.158,9.769,0.29,0,0,0,19096,2021-01-15 19:06:13:948
-0.158,9.769,0.29,0,0,0,19106,2021-01-15 19:06:13:958
-0.158,9.769,0.29,0,0,0,19117,2021-01-15 19:06:13:969
-0.158,9.769,0.29,0,0,0,19126,2021-01-15 19:06:13:978
-0.158,9.769,0.29,0,0,0,19136,2021-01-15 19:06:13:988
-0.158,9.769,0.29,0,0,0,19146,2021-01-15 19:06:13:998
-0.151,9.783,0.259,0,0,0,19156,2021-01-15 19:06:14:008
-0.151,9.783,0.259,0,0,0,19166,2021-01-15 19:06:14:018
-0.151,9.783,0.259,0,0,0,19176,2021-01-15 19:06:14:028
-0.151,9.783,0.259,0,0,0,19187,2021-01-15 19:06:14:039
-0.151,9.783,0.259,0,0,0,19197,2021-01-15 19:06:14:049
-0.151,9.783,0.259,0,0,0,19205,2021-01-15 19:06:14:057
-0.158,9.778,0.278,0,0,0,19216,2021-01-15 19:06:14:068
-0.158,9.778,0.278,0,0,0,19226,2021-01-15 19:06:14:078
-0.158,9.778,0.278,0,0,0,19236,2021-01-15 19:06:14:088
-0.158,9.778,0.278,0,0,0,19246,2021-01-15 19:06:14:098
-0.158,9.778,0.278,0,0,0,19256,2021-01-15 19:06:14:108
-0.158,9.778,0.278,0,0,0,19266,2021-01-15 19:06:14:118
-0.168,9.783,0.278,0,0,0,19276,2021-01-15 19:06:14:128
-0.168,9.783,0.278,0,0,0,19286,2021-01-15 19:06:14:138
-0.168,9.783,0.278,0,0,0,19296,2021-01-15 19:06:14:148
-0.168,9.783,0.278,0,0,0,19305,2021-01-15 19:06:14:157
-0.168,9.783,0.278,0,0,0,19315,2021-01-15 19:06:14:167
-0.168,9.783,0.278,0,0,0,19326,2021-01-15 19:06:14:178
-0.146,9.761,0.285,0,0,0,19336,2021-01-15 19:06:14:188
-0.146,9.761,0.285,0,0,0,19346,2021-01-15 19:06:14:198
-0.146,9.761,0.285,0,0,0,19355,2021-01-15 19:06:14:207
-0.146,9.761,0.285,0,0,0,19366,2021-01-15 19:06:14:218
-0.146,9.761,0.285,0,0,0,19376,2021-01-15 19:06:14:228
-0.146,9.761,0.285,0,0,0,19386,2021-01-15 19:06:14:238
-0.163,9.771,0.271,0,0,0,19396,2021-01-15 19:06:14:248
-0.163,9.771,0.271,0,0,0,19406,2021-01-15 19:06:14:258
-0.163,9.771,0.271,0,0,0,19416,2021-01-15 19:06:14:268
-0.163,9.771,0.271,0,0,0,19426,2021-01-15 19:06:14:278
-0.163,9.771,0.271,0,0,0,19436,2021-01-15 19:06:14:288
-0.163,9.771,0.271,0,0,0,19447,2021-01-15 19:06:14:299
-0.165,9.771,0.287,0,0,0,19455,2021-01-15 19:06:14:307
-0.165,9.771,0.287,0,0,0,19466,2021-01-15 19:06:14:318
-0.165,9.771,0.287,0,0,0,19477,2021-01-15 19:06:14:329
-0.165,9.771,0.287,0,0,0,19486,2021-01-15 19:06:14:338
-0.165,9.771,0.287,0,0,0,19496,2021-01-15 19:06:14:348
-0.165,9.771,0.287,0,0,0,19506,2021-01-15 19:06:14:358
-0.172,9.766,0.263,0,0,0,19517,2021-01-15 19:06:14:369
-0.172,9.766,0.263,0,0,0,19526,2021-01-15 19:06:14:378
-0.172,9.766,0.263,0,0,0,19536,2021-01-15 19:06:14:388
-0.172,9.766,0.263,0,0,0,19548,2021-01-15 19:06:14:400
-0.172,9.766,0.263,0,0,0,19556,2021-01-15 19:06:14:408
-0.172,9.766,0.263,0,0,0,19566,2021-01-15 19:06:14:418
-0.163,9.783,0.263,0,0,0,19576,2021-01-15 19:06:14:428
-0.163,9.783,0.263,0,0,0,19587,2021-01-15 19:06:14:439
-0.163,9.783,0.263,0,0,0,19598,2021-01-15 19:06:14:450
-0.163,9.783,0.263,0,0,0,19605,2021-01-15 19:06:14:457
-0.163,9.783,0.263,0,0,0,19616,2021-01-15 19:06:14:468
-0.16,9.761,0.266,0,0,0,19628,2021-01-15 19:06:14:480
-0.16,9.761,0.266,0,0,0,19637,2021-01-15 19:06:14:489
-0.16,9.761,0.266,0,0,0,19646,2021-01-15 19:06:14:498
-0.16,9.761,0.266,0,0,0,19656,2021-01-15 19:06:14:508
-0.16,9.761,0.266,0,0,0,19666,2021-01-15 19:06:14:518
-0.16,9.761,0.266,0,0,0,19676,2021-01-15 19:06:14:528
-0.16,9.761,0.266,0,0,0,19686,2021-01-15 19:06:14:538
-0.172,9.769,0.263,0,0,0,19696,2021-01-15 19:06:14:548
-0.172,9.769,0.263,0,0,0,19706,2021-01-15 19:06:14:558
-0.172,9.769,0.263,0,0,0,19716,2021-01-15 19:06:14:568
-0.172,9.769,0.263,0,0,0,19728,2021-01-15 19:06:14:580
-0.172,9.769,0.263,0,0,0,19736,2021-01-15 19:06:14:588
-0.172,9.769,0.263,0,0,0,19746,2021-01-15 19:06:14:598
-0.17,9.776,0.266,0,0,0,19756,2021-01-15 19:06:14:608
-0.17,9.776,0.266,0,0,0,19766,2021-01-15 19:06:14:618
-0.17,9.776,0.266,0,0,0,19778,2021-01-15 19:06:14:630
-0.17,9.776,0.266,0,0,0,19788,2021-01-15 19:06:14:640
-0.17,9.776,0.266,0,0,0,19796,2021-01-15 19:06:14:648
-0.17,9.776,0.266,0,0,0,19806,2021-01-15 19:06:14:658
-0.16,9.769,0.263,0,0,0,19816,2021-01-15 19:06:14:668
-0.16,9.769,0.263,0,0,0,19827,2021-01-15 19:06:14:679
-0.16,9.769,0.263,0,0,0,19836,2021-01-15 19:06:14:688
-0.16,9.769,0.263,0,0,0,19847,2021-01-15 19:06:14:699
-0.16,9.769,0.263,0,0,0,19855,2021-01-15 19:06:14:707
-0.16,9.769,0.263,0,0,0,19866,2021-01-15 19:06:14:718
-0.168,9.773,0.266,0,0,0,19876,2021-01-15 19:06:14:728
-0.168,9.773,0.266,0,0,0,19886,2021-01-15 19:06:14:738
-0.168,9.773,0.266,0,0,0,19896,2021-01-15 19:06:14:748
-0.168,9.773,0.266,0,0,0,19906,2021-01-15 19:06:14:758
-0.168,9.773,0.266,0,0,0,19916,2021-01-15 19:06:14:768
-0.168,9.773,0.266,0,0,0,19926,2021-01-15 19:06:14:778
-0.182,9.783,0.261,0,0,0,19936,2021-01-15 19:06:14:788
-0.182,9.783,0.261,0,0,0,19946,2021-01-15 19:06:14:798
-0.182,9.783,0.261,0,0,0,19956,2021-01-15 19:06:14:808
-0.182,9.783,0.261,0,0,0,19967,2021-01-15 19:06:14:819
-0.182,9.783,0.261,0,0,0,19976,2021-01-15 19:06:14:828
-0.163,9.769,0.261,0,0,0,19986,2021-01-15 19:06:14:838
-0.163,9.769,0.261,0,0,0,19995,2021-01-15 19:06:14:847
-0.163,9.769,0.261,0,0,0,20006,2021-01-15 19:06:14:858
-0.163,9.769,0.261,0,0,0,20017,2021-01-15 19:06:14:869
-0.163,9.769,0.261,0,0,0,20026,2021-01-15 19:06:14:878
-0.163,9.769,0.261,0,0,0,20036,2021-01-15 19:06:14:888
-0.163,9.769,0.261,0,0,0,20047,2021-01-15 19:06:14:899
-0.156,9.783,0.273,0,0,0,20056,2021-01-15 19:06:14:908
-0.156,9.783,0.273,0,0,0,20066,2021-01-15 19:06:14:918
-0.156,9.783,0.273,0,0,0,20076,2021-01-15 19:06:14:928
-0.156,9.783,0.273,0,0,0,20086,2021-01-15 19:06:14:938
-0.156,9.783,0.273,0,0,0,20095,2021-01-15 19:06:14:947
-0.156,9.783,0.273,0,0,0,20106,2021-01-15 19:06:14:958
-0.156,9.776,0.261,0,0,0,20116,2021-01-15 19:06:14:968
-0.156,9.776,0.261,0,0,0,20126,2021-01-15 19:06:14:978
-0.156,9.776,0.261,0,0,0,20136,2021-01-15 19:06:14:988
-0.156,9.776,0.261,0,0,0,20147,2021-01-15 19:06:14:999
-0.156,9.776,0.261,0,0,0,20156,2021-01-15 19:06:15:008
-0.156,9.776,0.261,0,0,0,20166,2021-01-15 19:06:15:018
-0.16,9.771,0.271,0,0,0,20176,2021-01-15 19:06:15:028
-0.16,9.771,0.271,0,0,0,20187,2021-01-15 19:06:15:039
-0.16,9.771,0.271,0,0,0,20196,2021-01-15 19:06:15:048
-0.16,9.771,0.271,0,0,0,20206,2021-01-15 19:06:15:058
-0.16,9.771,0.271,0,0,0,20216,2021-01-15 19:06:15:068
-0.16,9.771,0.271,0,0,0,20226,2021-01-15 19:06:15:078
-0.151,9.778,0.28,0,0,0,20236,2021-01-15 19:06:15:088
-0.151,9.778,0.28,0,0,0,20246,2021-01-15 19:06:15:098
-0.151,9.778,0.28,0,0,0,20256,2021-01-15 19:06:15:108
-0.151,9.778,0.28,0,0,0,20266,2021-01-15 19:06:15:118
-0.151,9.778,0.28,0,0,0,20276,2021-01-15 19:06:15:128
-0.175,9.766,0.285,0,0,0,20286,2021-01-15 19:06:15:138
-0.175,9.766,0.285,0,0,0,20296,2021-01-15 19:06:15:148
-0.175,9.766,0.285,0,0,0,20306,2021-01-15 19:06:15:158
-0.175,9.766,0.285,0,0,0,20316,2021-01-15 19:06:15:168
-0.175,9.766,0.285,0,0,0,20326,2021-01-15 19:06:15:178
-0.175,9.766,0.285,0,0,0,20336,2021-01-15 19:06:15:188
-0.175,9.766,0.285,0,0,0,20346,2021-01-15 19:06:15:198
-0.168,9.776,0.278,0,0,0,20356,2021-01-15 19:06:15:208
-0.168,9.776,0.278,0,0,0,20365,2021-01-15 19:06:15:217
-0.168,9.776,0.278,0,0,0,20377,2021-01-15 19:06:15:229
-0.168,9.776,0.278,0,0,0,20387,2021-01-15 19:06:15:239
-0.168,9.776,0.278,0,0,0,20396,2021-01-15 19:06:15:248
-0.168,9.776,0.278,0,0,0,20406,2021-01-15 19:06:15:258
-0.16,9.769,0.28,0,0,0,20417,2021-01-15 19:06:15:269
-0.16,9.769,0.28,0,0,0,20426,2021-01-15 19:06:15:278
-0.16,9.769,0.28,0,0,0,20435,2021-01-15 19:06:15:287
-0.16,9.769,0.28,0,0,0,20447,2021-01-15 19:06:15:299
-0.16,9.769,0.28,0,0,0,20457,2021-01-15 19:06:15:309
-0.16,9.769,0.28,0,0,0,20466,2021-01-15 19:06:15:318
-0.175,9.771,0.287,0,0,0,20476,2021-01-15 19:06:15:328
-0.175,9.771,0.287,0,0,0,20488,2021-01-15 19:06:15:340
-0.175,9.771,0.287,0,0,0,20496,2021-01-15 19:06:15:348
-0.175,9.771,0.287,0,0,0,20507,2021-01-15 19:06:15:359
-0.175,9.771,0.287,0,0,0,20516,2021-01-15 19:06:15:368
-0.148,9.771,0.266,0,0,0,20528,2021-01-15 19:06:15:380
-0.148,9.771,0.266,0,0,0,20536,2021-01-15 19:06:15:388
-0.148,9.771,0.266,0,0,0,20548,2021-01-15 19:06:15:400
-0.148,9.771,0.266,0,0,0,20556,2021-01-15 19:06:15:408
-0.148,9.771,0.266,0,0,0,20566,2021-01-15 19:06:15:418
-0.148,9.771,0.266,0,0,0,20576,2021-01-15 19:06:15:428
-0.148,9.771,0.266,0,0,0,20586,2021-01-15 19:06:15:438
-0.163,9.785,0.259,0,0,0,20596,2021-01-15 19:06:15:448
-0.163,9.785,0.259,0,0,0,20606,2021-01-15 19:06:15:458
-0.163,9.785,0.259,0,0,0,20618,2021-01-15 19:06:15:470
-0.163,9.785,0.259,0,0,0,20626,2021-01-15 19:06:15:478
-0.163,9.785,0.259,0,0,0,20636,2021-01-15 19:06:15:488
-0.163,9.785,0.259,0,0,0,20650,2021-01-15 19:06:15:502
-0.175,9.776,0.285,0,0,0,20656,2021-01-15 19:06:15:508
-0.175,9.776,0.285,0,0,0,20666,2021-01-15 19:06:15:518
-0.175,9.776,0.285,0,0,0,20676,2021-01-15 19:06:15:528
-0.175,9.776,0.285,0,0,0,20691,2021-01-15 19:06:15:543
-0.175,9.776,0.285,0,0,0,20696,2021-01-15 19:06:15:548
-0.175,9.776,0.285,0,0,0,20706,2021-01-15 19:06:15:558
-0.182,9.759,0.275,0,0,0,20716,2021-01-15 19:06:15:568
-0.182,9.759,0.275,0,0,0,20727,2021-01-15 19:06:15:579
-0.182,9.759,0.275,0,0,0,20736,2021-01-15 19:06:15:588
-0.182,9.759,0.275,0,0,0,20748,2021-01-15 19:06:15:600
-0.182,9.759,0.275,0,0,0,20756,2021-01-15 19:06:15:608
-0.182,9.759,0.275,0,0,0,20766,2021-01-15 19:06:15:618
-0.168,9.771,0.275,0,0,0,20776,2021-01-15 19:06:15:628
-0.168,9.771,0.275,0,0,0,20786,2021-01-15 19:06:15:638
-0.168,9.771,0.275,0,0,0,20797,2021-01-15 19:06:15:649
-0.168,9.771,0.275,0,0,0,20806,2021-01-15 19:06:15:658
-0.168,9.771,0.275,0,0,0,20816,2021-01-15 19:06:15:668
-0.168,9.771,0.275,0,0,0,20826,2021-01-15 19:06:15:678
-0.153,9.778,0.261,0,0,0,20836,2021-01-15 19:06:15:688
-0.153,9.778,0.261,0,0,0,20849,2021-01-15 19:06:15:701
-0.153,9.778,0.261,0,0,0,20856,2021-01-15 19:06:15:708
-0.153,9.778,0.261,0,0,0,20866,2021-01-15 19:06:15:718
-0.153,9.778,0.261,0,0,0,20876,2021-01-15 19:06:15:728
-0.153,9.778,0.261,0,0,0,20886,2021-01-15 19:06:15:738
-0.172,9.769,0.28,0,0,0,20898,2021-01-15 19:06:15:750
-0.172,9.769,0.28,0,0,0,20906,2021-01-15 19:06:15:758
-0.172,9.769,0.28,0,0,0,20916,2021-01-15 19:06:15:768
-0.172,9.769,0.28,0,0,0,20926,2021-01-15 19:06:15:778
-0.172,9.769,0.28,0,0,0,20936,2021-01-15 19:06:15:788
-0.172,9.769,0.28,0,0,0,20947,2021-01-15 19:06:15:799
-0.151,9.776,0.271,0,0,0,20956,2021-01-15 19:06:15:808
-0.151,9.776,0.271,0,0,0,20967,2021-01-15 19:06:15:819
-0.151,9.776,0.271,0,0,0,20976,2021-01-15 19:06:15:828
-0.151,9.776,0.271,0,0,0,20986,2021-01-15 19:06:15:838
-0.151,9.776,0.271,0,0,0,20996,2021-01-15 19:06:15:848
-0.151,9.776,0.271,0,0,0,21006,2021-01-15 19:06:15:858
-0.17,9.754,0.268,0,0,0,21018,2021-01-15 19:06:15:870
-0.17,9.754,0.268,0,0,0,21026,2021-01-15 19:06:15:878
-0.17,9.754,0.268,0,0,0,21036,2021-01-15 19:06:15:888
-0.17,9.754,0.268,0,0,0,21048,2021-01-15 19:06:15:900
-0.17,9.754,0.268,0,0,0,21055,2021-01-15 19:06:15:907
-0.17,9.754,0.268,0,0,0,21066,2021-01-15 19:06:15:918
-0.17,9.79,0.271,0,0,0,21076,2021-01-15 19:06:15:928
-0.17,9.79,0.271,0,0,0,21086,2021-01-15 19:06:15:938
-0.17,9.79,0.271,0,0,0,21096,2021-01-15 19:06:15:948
-0.17,9.79,0.271,0,0,0,21107,2021-01-15 19:06:15:959
-0.17,9.79,0.271,0,0,0,21116,2021-01-15 19:06:15:968
-0.17,9.79,0.271,0,0,0,21126,2021-01-15 19:06:15:978
-0.177,9.769,0.283,0,0,0,21136,2021-01-15 19:06:15:988
-0.177,9.769,0.283,0,0,0,21146,2021-01-15 19:06:15:998
-0.177,9.769,0.283,0,0,0,21161,2021-01-15 19:06:16:013
-0.177,9.769,0.283,0,0,0,21165,2021-01-15 19:06:16:017
-0.177,9.769,0.283,0,0,0,21176,2021-01-15 19:06:16:028
-0.177,9.769,0.283,0,0,0,21186,2021-01-15 19:06:16:038
-0.151,9.781,0.273,0,0,0,21196,2021-01-15 19:06:16:048
-0.151,9.781,0.273,0,0,0,21206,2021-01-15 19:06:16:058
-0.151,9.781,0.273,0,0,0,21216,2021-01-15 19:06:16:068
-0.151,9.781,0.273,0,0,0,21226,2021-01-15 19:06:16:078
-0.151,9.781,0.273,0,0,0,21235,2021-01-15 19:06:16:087
-0.151,9.781,0.273,0,0,0,21245,2021-01-15 19:06:16:097
-0.165,9.778,0.259,0,0,0,21256,2021-01-15 19:06:16:108
-0.165,9.778,0.259,0,0,0,21266,2021-01-15 19:06:16:118
-0.165,9.778,0.259,0,0,0,21276,2021-01-15 19:06:16:128
-0.165,9.778,0.259,0,0,0,21286,2021-01-15 19:06:16:138
-0.165,9.778,0.259,0,0,0,21295,2021-01-15 19:06:16:147
-0.165,9.759,0.271,0,0,0,21306,2021-01-15 19:06:16:158
-0.148,9.759,0.271,0,0,0,21316,2021-01-15 19:06:16:168
-0.148,9.759,0.271,0,0,0,21326,2021-01-15 19:06:16:178
-0.148,9.759,0.271,0,0,0,21336,2021-01-15 19:06:16:188
-0.148,9.759,0.271,0,0,0,21348,2021-01-15 19:06:16:200
-0.148,9.759,0.271,0,0,0,21356,2021-01-15 19:06:16:208
-0.148,9.759,0.271,0,0,0,21366,2021-01-15 19:06:16:218
-0.165,9.778,0.266,0,0,0,21376,2021-01-15 19:06:16:228
-0.165,9.778,0.266,0,0,0,21386,2021-01-15 19:06:16:238
-0.165,9.778,0.266,0,0,0,21396,2021-01-15 19:06:16:248
-0.165,9.778,0.266,0,0,0,21406,2021-01-15 19:06:16:258
-0.165,9.778,0.266,0,0,0,21415,2021-01-15 19:06:16:267
-0.153,9.769,0.268,0,0,0,21426,2021-01-15 19:06:16:278
-0.153,9.769,0.268,0,0,0,21436,2021-01-15 19:06:16:288
-0.153,9.769,0.268,0,0,0,21446,2021-01-15 19:06:16:298
-0.153,9.769,0.268,0,0,0,21456,2021-01-15 19:06:16:308
-0.153,9.769,0.268,0,0,0,21467,2021-01-15 19:06:16:319
-0.153,9.769,0.268,0,0,0,21476,2021-01-15 19:06:16:328
-0.153,9.769,0.268,0,0,0,21485,2021-01-15 19:06:16:337
-0.172,9.783,0.273,0,0,0,21497,2021-01-15 19:06:16:349
-0.172,9.783,0.273,0,0,0,21506,2021-01-15 19:06:16:358
-0.172,9.783,0.273,0,0,0,21516,2021-01-15 19:06:16:368
-0.172,9.783,0.273,0,0,0,21526,2021-01-15 19:06:16:378
-0.172,9.783,0.273,0,0,0,21536,2021-01-15 19:06:16:388
-0.172,9.783,0.273,0,0,0,21548,2021-01-15 19:06:16:400
-0.153,9.764,0.29,0,0,0,21556,2021-01-15 19:06:16:408
-0.153,9.764,0.29,0,0,0,21566,2021-01-15 19:06:16:418
-0.153,9.764,0.29,0,0,0,21579,2021-01-15 19:06:16:431
-0.153,9.764,0.29,0,0,0,21585,2021-01-15 19:06:16:437
-0.153,9.764,0.29,0,0,0,21596,2021-01-15 19:06:16:448
-0.158,9.766,0.249,0,0,0,21606,2021-01-15 19:06:16:458
-0.158,9.766,0.249,0,0,0,21616,2021-01-15 19:06:16:468
-0.158,9.766,0.249,0,0,0,21625,2021-01-15 19:06:16:477
-0.158,9.766,0.249,0,0,0,21636,2021-01-15 19:06:16:488
-0.158,9.766,0.249,0,0,0,21646,2021-01-15 19:06:16:498
-0.158,9.766,0.249,0,0,0,21661,2021-01-15 19:06:16:513
-0.151,9.781,0.275,0,0,0,21666,2021-01-15 19:06:16:518
-0.151,9.781,0.275,0,0,0,21676,2021-01-15 19:06:16:528
-0.151,9.781,0.275,0,0,0,21686,2021-01-15 19:06:16:538
-0.151,9.781,0.275,0,0,0,21696,2021-01-15 19:06:16:548
-0.151,9.781,0.275,0,0,0,21706,2021-01-15 19:06:16:558
-0.163,9.778,0.266,0,0,0,21734,2021-01-15 19:06:16:586
-0.163,9.778,0.266,0,0,0,21734,2021-01-15 19:06:16:586
-0.163,9.778,0.266,0,0,0,21738,2021-01-15 19:06:16:590
-0.163,9.778,0.266,0,0,0,21746,2021-01-15 19:06:16:598
-0.163,9.778,0.266,0,0,0,21756,2021-01-15 19:06:16:608
-0.163,9.778,0.266,0,0,0,21766,2021-01-15 19:06:16:618
-0.163,9.778,0.266,0,0,0,21776,2021-01-15 19:06:16:628
-0.156,9.771,0.273,0,0,0,21786,2021-01-15 19:06:16:638
-0.156,9.771,0.273,0,0,0,21797,2021-01-15 19:06:16:649
-0.156,9.771,0.273,0,0,0,21806,2021-01-15 19:06:16:658
-0.156,9.771,0.273,0,0,0,21823,2021-01-15 19:06:16:675
-0.156,9.771,0.273,0,0,0,21826,2021-01-15 19:06:16:678
-0.156,9.771,0.273,0,0,0,21838,2021-01-15 19:06:16:690
-0.158,9.759,0.275,0,0,0,21854,2021-01-15 19:06:16:706
-0.158,9.759,0.275,0,0,0,21856,2021-01-15 19:06:16:708
-0.158,9.759,0.275,0,0,0,21866,2021-01-15 19:06:16:718
-0.158,9.759,0.275,0,0,0,21876,2021-01-15 19:06:16:728
-0.158,9.759,0.275,0,0,0,21888,2021-01-15 19:06:16:740
-0.158,9.759,0.275,0,0,0,21895,2021-01-15 19:06:16:747
-0.158,9.759,0.275,0,0,0,21906,2021-01-15 19:06:16:758
-0.163,9.773,0.271,0,0,0,21916,2021-01-15 19:06:16:768
-0.163,9.773,0.271,0,0,0,21937,2021-01-15 19:06:16:789
