sep=;
ACCELEROMETER X (m/s²);ACCELEROMETER Y (m/s²);ACCELEROMETER Z (m/s²);GYROSCOPE X (rad/s);GYROSCOPE Y (rad/s);GYROSCOPE Z (rad/s);Time since start in ms ;YYYY-MO-DD HH-MI-SS_SSS
-0.12;9.788;-0.055;0.001;0.0;0.0;56;2021-01-16 16:14:25:237
-0.115;9.788;-0.026;0.001;0.0;0.0;67;2021-01-16 16:14:25:248
-0.115;9.788;-0.026;0.001;0.0;0.0;75;2021-01-16 16:14:25:256
-0.115;9.788;-0.026;0.001;0.0;0.0;86;2021-01-16 16:14:25:267
-0.115;9.788;-0.026;0.001;0.0;0.0;96;2021-01-16 16:14:25:277
-0.115;9.788;-0.026;0.001;0.0;0.0;105;2021-01-16 16:14:25:286
-0.115;9.788;-0.026;0.001;0.0;0.0;118;2021-01-16 16:14:25:299
-0.127;9.778;-0.022;0.001;0.0;0.0;127;2021-01-16 16:14:25:308
-0.127;9.778;-0.022;0.001;0.0;0.0;135;2021-01-16 16:14:25:316
-0.127;9.778;-0.022;0.001;0.0;0.0;147;2021-01-16 16:14:25:328
-0.127;9.778;-0.022;0.001;0.0;0.0;156;2021-01-16 16:14:25:337
-0.127;9.778;-0.022;0.0;0.0;0.0;167;2021-01-16 16:14:25:348
-0.127;9.778;-0.022;0.0;0.0;0.0;175;2021-01-16 16:14:25:356
-0.129;9.778;-0.038;0.0;0.0;0.0;187;2021-01-16 16:14:25:368
-0.129;9.778;-0.038;0.0;0.0;0.0;196;2021-01-16 16:14:25:377
-0.129;9.778;-0.038;0.0;0.0;0.0;205;2021-01-16 16:14:25:386
-0.129;9.778;-0.038;0.0;0.0;0.0;218;2021-01-16 16:14:25:399
-0.129;9.778;-0.038;0.0;0.0;0.0;225;2021-01-16 16:14:25:406
-0.129;9.778;-0.038;0.0;0.0;0.0;235;2021-01-16 16:14:25:416
-0.134;9.793;-0.057;0.0;0.0;0.0;246;2021-01-16 16:14:25:427
-0.134;9.793;-0.057;0.0;0.0;0.0;255;2021-01-16 16:14:25:436
-0.134;9.793;-0.057;0.0;0.0;0.0;265;2021-01-16 16:14:25:446
-0.134;9.793;-0.057;0.0;0.0;0.0;276;2021-01-16 16:14:25:457
-0.134;9.793;-0.057;0.0;0.0;0.0;285;2021-01-16 16:14:25:466
-0.134;9.793;-0.057;0.0;0.0;0.0;295;2021-01-16 16:14:25:476
-0.129;9.79;-0.065;0.0;0.0;0.0;306;2021-01-16 16:14:25:487
-0.129;9.79;-0.065;0.0;0.0;0.0;315;2021-01-16 16:14:25:496
-0.129;9.79;-0.065;0.0;0.0;0.0;325;2021-01-16 16:14:25:506
-0.129;9.79;-0.065;0.0;0.0;0.0;337;2021-01-16 16:14:25:518
-0.129;9.79;-0.065;0.0;0.0;0.0;345;2021-01-16 16:14:25:526
-0.129;9.79;-0.065;0.0;0.0;0.0;355;2021-01-16 16:14:25:536
-0.122;9.766;-0.041;0.0;0.0;0.0;366;2021-01-16 16:14:25:547
-0.122;9.766;-0.041;0.0;0.0;0.0;375;2021-01-16 16:14:25:556
-0.122;9.766;-0.041;0.0;0.0;0.0;385;2021-01-16 16:14:25:566
-0.122;9.766;-0.041;0.0;0.0;0.0;397;2021-01-16 16:14:25:578
-0.122;9.766;-0.041;0.001;0.0;0.0;405;2021-01-16 16:14:25:586
-0.122;9.766;-0.041;0.001;0.0;0.0;415;2021-01-16 16:14:25:596
-0.136;9.783;-0.005;0.001;0.0;0.0;425;2021-01-16 16:14:25:606
-0.136;9.783;-0.005;0.001;0.0;0.0;436;2021-01-16 16:14:25:617
-0.136;9.783;-0.005;0.001;0.0;0.0;447;2021-01-16 16:14:25:628
-0.136;9.783;-0.005;0.001;0.0;0.0;455;2021-01-16 16:14:25:636
-0.136;9.783;-0.005;0.001;0.0;0.0;466;2021-01-16 16:14:25:647
-0.136;9.783;-0.005;0.001;0.0;0.0;475;2021-01-16 16:14:25:656
-0.132;9.793;-0.029;0.001;0.0;0.0;487;2021-01-16 16:14:25:668
-0.132;9.793;-0.029;0.001;0.0;0.0;497;2021-01-16 16:14:25:678
-0.132;9.793;-0.029;0.001;0.0;0.0;506;2021-01-16 16:14:25:687
-0.132;9.793;-0.029;0.001;0.0;0.0;515;2021-01-16 16:14:25:696
-0.132;9.793;-0.029;0.001;0.0;0.0;528;2021-01-16 16:14:25:709
-0.132;9.793;-0.029;0.001;0.0;0.0;535;2021-01-16 16:14:25:716
-0.125;9.793;-0.05;0.001;0.0;0.0;545;2021-01-16 16:14:25:726
-0.125;9.793;-0.05;0.001;0.0;0.0;555;2021-01-16 16:14:25:736
-0.125;9.793;-0.05;0.001;0.0;0.0;570;2021-01-16 16:14:25:751
-0.125;9.793;-0.05;0.001;0.0;0.0;578;2021-01-16 16:14:25:759
-0.125;9.793;-0.05;0.001;0.0;0.0;586;2021-01-16 16:14:25:767
-0.125;9.793;-0.05;0.001;0.0;0.0;595;2021-01-16 16:14:25:776
-0.129;9.8;-0.041;0.001;0.0;0.0;605;2021-01-16 16:14:25:786
-0.129;9.8;-0.041;0.001;0.0;0.0;616;2021-01-16 16:14:25:797
-0.129;9.8;-0.041;0.001;0.0;0.0;625;2021-01-16 16:14:25:806
-0.129;9.8;-0.041;0.001;0.0;0.0;636;2021-01-16 16:14:25:817
-0.129;9.8;-0.041;0.0;-0.001;0.0;645;2021-01-16 16:14:25:826
-0.129;9.8;-0.041;0.0;-0.001;0.0;656;2021-01-16 16:14:25:837
-0.129;9.8;-0.041;0.0;-0.001;0.0;665;2021-01-16 16:14:25:846
-0.141;9.783;-0.06;0.0;-0.001;0.0;675;2021-01-16 16:14:25:856
-0.141;9.783;-0.06;0.0;-0.001;0.0;685;2021-01-16 16:14:25:866
-0.141;9.783;-0.06;0.0;-0.001;0.0;699;2021-01-16 16:14:25:880
-0.141;9.783;-0.06;0.0;-0.001;0.0;705;2021-01-16 16:14:25:886
-0.141;9.783;-0.06;0.0;-0.001;0.0;715;2021-01-16 16:14:25:896
-0.125;9.778;-0.045;0.0;-0.001;0.0;725;2021-01-16 16:14:25:906
-0.125;9.778;-0.045;0.0;-0.001;0.0;736;2021-01-16 16:14:25:917
-0.125;9.778;-0.045;0.0;-0.001;0.0;749;2021-01-16 16:14:25:930
-0.125;9.778;-0.045;0.0;-0.001;0.0;756;2021-01-16 16:14:25:937
-0.125;9.778;-0.045;0.0;0.0;0.0;769;2021-01-16 16:14:25:950
-0.125;9.778;-0.045;0.0;0.0;0.0;776;2021-01-16 16:14:25:957
-0.125;9.778;-0.045;0.0;0.0;0.0;785;2021-01-16 16:14:25:966
-0.115;9.793;-0.038;0.0;0.0;0.0;796;2021-01-16 16:14:25:977
-0.115;9.793;-0.038;0.0;0.0;0.0;805;2021-01-16 16:14:25:986
-0.115;9.793;-0.038;0.0;0.0;0.0;815;2021-01-16 16:14:25:996
-0.115;9.793;-0.038;0.0;0.0;0.0;827;2021-01-16 16:14:26:008
-0.115;9.793;-0.038;0.0;0.0;0.0;835;2021-01-16 16:14:26:016
-0.12;9.785;-0.031;0.0;0.0;0.0;847;2021-01-16 16:14:26:028
-0.12;9.785;-0.031;0.0;0.0;0.0;855;2021-01-16 16:14:26:036
-0.12;9.785;-0.031;0.0;0.0;0.0;865;2021-01-16 16:14:26:046
-0.12;9.785;-0.031;0.0;0.0;0.0;875;2021-01-16 16:14:26:056
-0.12;9.785;-0.031;0.0;-0.001;0.0;890;2021-01-16 16:14:26:071
-0.12;9.785;-0.031;0.0;-0.001;0.0;895;2021-01-16 16:14:26:076
-0.134;9.783;-0.031;0.0;-0.001;0.0;907;2021-01-16 16:14:26:088
-0.134;9.783;-0.031;0.0;-0.001;0.0;915;2021-01-16 16:14:26:096
-0.134;9.783;-0.031;0.0;-0.001;0.0;925;2021-01-16 16:14:26:106
-0.134;9.783;-0.031;0.0;-0.001;0.0;936;2021-01-16 16:14:26:117
-0.134;9.783;-0.031;0.0;-0.001;0.0;945;2021-01-16 16:14:26:126
-0.134;9.783;-0.031;0.0;-0.001;0.0;956;2021-01-16 16:14:26:137
-0.134;9.79;-0.036;0.0;-0.001;0.0;967;2021-01-16 16:14:26:148
-0.134;9.79;-0.036;0.0;-0.001;0.0;975;2021-01-16 16:14:26:156
-0.134;9.79;-0.036;0.0;-0.001;0.0;985;2021-01-16 16:14:26:166
-0.134;9.79;-0.036;0.0;-0.001;0.0;995;2021-01-16 16:14:26:176
-0.134;9.79;-0.036;0.0;0.0;0.0;1005;2021-01-16 16:14:26:186
-0.134;9.79;-0.036;0.0;0.0;0.0;1015;2021-01-16 16:14:26:196
-0.146;9.781;-0.029;0.0;0.0;0.0;1028;2021-01-16 16:14:26:209
-0.146;9.781;-0.029;0.0;0.0;0.0;1041;2021-01-16 16:14:26:222
-0.146;9.781;-0.029;0.0;0.0;0.0;1045;2021-01-16 16:14:26:226
-0.146;9.781;-0.029;0.0;0.0;0.0;1055;2021-01-16 16:14:26:236
-0.146;9.781;-0.029;0.0;0.0;0.0;1065;2021-01-16 16:14:26:246
-0.146;9.781;-0.029;0.0;0.0;0.0;1075;2021-01-16 16:14:26:256
-0.122;9.773;-0.053;0.0;0.0;0.0;1085;2021-01-16 16:14:26:266
-0.122;9.773;-0.053;0.0;0.0;0.0;1095;2021-01-16 16:14:26:276
-0.122;9.773;-0.053;0.0;0.0;0.0;1105;2021-01-16 16:14:26:286
-0.122;9.773;-0.053;0.0;0.0;0.0;1115;2021-01-16 16:14:26:296
-0.122;9.773;-0.053;0.0;0.0;0.0;1125;2021-01-16 16:14:26:306
-0.122;9.773;-0.053;0.0;0.0;0.0;1135;2021-01-16 16:14:26:316
-0.115;9.766;-0.031;0.0;0.0;0.0;1145;2021-01-16 16:14:26:326
-0.115;9.766;-0.031;0.0;0.0;0.0;1158;2021-01-16 16:14:26:339
-0.115;9.766;-0.031;0.0;0.0;0.0;1165;2021-01-16 16:14:26:346
-0.115;9.766;-0.031;0.0;0.0;0.0;1176;2021-01-16 16:14:26:357
-0.115;9.766;-0.031;0.0;0.0;0.0;1186;2021-01-16 16:14:26:367
-0.115;9.766;-0.031;0.0;0.0;0.0;1195;2021-01-16 16:14:26:376
-0.127;9.793;-0.043;0.0;0.0;0.0;1210;2021-01-16 16:14:26:391
-0.127;9.793;-0.043;0.0;0.0;0.0;1215;2021-01-16 16:14:26:396
-0.127;9.793;-0.043;0.0;0.0;0.0;1226;2021-01-16 16:14:26:407
-0.127;9.793;-0.043;0.0;0.0;0.0;1238;2021-01-16 16:14:26:419
-0.127;9.793;-0.043;0.0;0.0;0.0;1246;2021-01-16 16:14:26:427
-0.127;9.793;-0.043;0.0;0.0;0.0;1255;2021-01-16 16:14:26:436
-0.141;9.783;-0.041;0.0;0.0;0.0;1265;2021-01-16 16:14:26:446
-0.141;9.783;-0.041;0.0;0.0;0.0;1275;2021-01-16 16:14:26:456
-0.141;9.783;-0.041;0.0;0.0;0.0;1287;2021-01-16 16:14:26:468
-0.141;9.783;-0.041;0.0;0.0;0.0;1295;2021-01-16 16:14:26:476
-0.141;9.783;-0.041;0.0;0.0;0.0;1305;2021-01-16 16:14:26:486
-0.141;9.783;-0.041;0.0;0.0;0.0;1316;2021-01-16 16:14:26:497
-0.12;9.783;-0.048;0.0;0.0;0.0;1325;2021-01-16 16:14:26:506
-0.12;9.783;-0.048;0.0;0.0;0.0;1335;2021-01-16 16:14:26:516
-0.12;9.783;-0.048;0.0;0.0;0.0;1345;2021-01-16 16:14:26:526
-0.12;9.783;-0.048;0.0;0.0;0.0;1355;2021-01-16 16:14:26:536
-0.12;9.783;-0.048;0.0;0.0;0.0;1365;2021-01-16 16:14:26:546
-0.12;9.783;-0.048;0.0;0.0;0.0;1375;2021-01-16 16:14:26:556
-0.144;9.79;-0.034;0.0;0.0;0.0;1385;2021-01-16 16:14:26:566
-0.144;9.79;-0.034;0.0;0.0;0.0;1396;2021-01-16 16:14:26:577
-0.144;9.79;-0.034;0.0;0.0;0.0;1406;2021-01-16 16:14:26:587
-0.144;9.79;-0.034;0.0;0.0;0.0;1415;2021-01-16 16:14:26:596
-0.144;9.79;-0.034;0.0;0.0;0.0;1425;2021-01-16 16:14:26:606
-0.144;9.79;-0.034;0.0;0.0;0.0;1435;2021-01-16 16:14:26:616
-0.134;9.778;-0.029;0.0;0.0;0.0;1445;2021-01-16 16:14:26:626
-0.134;9.778;-0.029;0.0;0.0;0.0;1455;2021-01-16 16:14:26:636
-0.134;9.778;-0.029;0.0;0.0;0.0;1465;2021-01-16 16:14:26:646
-0.134;9.778;-0.029;0.0;0.0;0.0;1475;2021-01-16 16:14:26:656
-0.134;9.778;-0.029;0.001;0.0;0.0;1488;2021-01-16 16:14:26:669
-0.134;9.778;-0.029;0.001;0.0;0.0;1497;2021-01-16 16:14:26:678
-0.134;9.785;-0.036;0.001;0.0;0.0;1506;2021-01-16 16:14:26:687
-0.134;9.785;-0.036;0.001;0.0;0.0;1515;2021-01-16 16:14:26:696
-0.134;9.785;-0.036;0.001;0.0;0.0;1526;2021-01-16 16:14:26:707
-0.134;9.785;-0.036;0.001;0.0;0.0;1535;2021-01-16 16:14:26:716
-0.134;9.785;-0.036;0.001;0.0;0.0;1545;2021-01-16 16:14:26:726
-0.134;9.785;-0.036;0.001;0.0;0.0;1555;2021-01-16 16:14:26:736
-0.117;9.785;-0.048;0.001;0.0;0.0;1565;2021-01-16 16:14:26:746
-0.117;9.785;-0.048;0.001;0.0;0.0;1577;2021-01-16 16:14:26:758
-0.117;9.785;-0.048;0.001;0.0;0.0;1585;2021-01-16 16:14:26:766
-0.117;9.785;-0.048;0.001;0.0;0.0;1596;2021-01-16 16:14:26:777
-0.117;9.785;-0.048;0.001;0.0;0.0;1605;2021-01-16 16:14:26:786
-0.117;9.785;-0.048;0.0;0.0;0.0;1615;2021-01-16 16:14:26:796
-0.127;9.783;-0.043;0.0;0.0;0.0;1632;2021-01-16 16:14:26:813
-0.127;9.783;-0.043;0.0;0.0;0.0;1636;2021-01-16 16:14:26:817
-0.127;9.783;-0.043;0.0;0.0;0.0;1645;2021-01-16 16:14:26:826
-0.127;9.783;-0.043;0.0;0.0;0.0;1656;2021-01-16 16:14:26:837
-0.127;9.783;-0.043;0.0;0.0;0.0;1669;2021-01-16 16:14:26:850
-0.127;9.783;-0.043;0.0;0.0;0.0;1676;2021-01-16 16:14:26:857
-0.144;9.773;-0.043;0.0;0.0;0.0;1685;2021-01-16 16:14:26:866
-0.144;9.773;-0.043;0.0;0.0;0.0;1695;2021-01-16 16:14:26:876
-0.144;9.773;-0.043;0.0;0.0;0.0;1706;2021-01-16 16:14:26:887
-0.144;9.773;-0.043;0.0;0.0;0.0;1715;2021-01-16 16:14:26:896
-0.144;9.773;-0.043;0.0;0.0;0.0;1725;2021-01-16 16:14:26:906
-0.144;9.773;-0.043;0.0;0.0;0.0;1735;2021-01-16 16:14:26:916
-0.108;9.785;-0.041;0.0;0.0;0.0;1745;2021-01-16 16:14:26:926
-0.108;9.785;-0.041;0.0;0.0;0.0;1755;2021-01-16 16:14:26:936
-0.108;9.785;-0.041;0.0;0.0;0.0;1765;2021-01-16 16:14:26:946
-0.108;9.785;-0.041;0.0;0.0;0.0;1775;2021-01-16 16:14:26:956
-0.108;9.785;-0.041;0.0;0.0;0.0;1785;2021-01-16 16:14:26:966
-0.108;9.785;-0.041;0.0;0.0;0.0;1795;2021-01-16 16:14:26:976
-0.136;9.788;-0.045;0.0;0.0;0.0;1807;2021-01-16 16:14:26:988
-0.136;9.788;-0.045;0.0;0.0;0.0;1815;2021-01-16 16:14:26:996
-0.136;9.788;-0.045;0.0;0.0;0.0;1825;2021-01-16 16:14:27:006
-0.136;9.788;-0.045;0.0;0.0;0.0;1837;2021-01-16 16:14:27:018
-0.136;9.788;-0.045;0.0;0.0;0.0;1848;2021-01-16 16:14:27:029
-0.136;9.788;-0.045;0.0;0.0;0.0;1855;2021-01-16 16:14:27:036
-0.117;9.781;-0.043;0.0;0.0;0.0;1865;2021-01-16 16:14:27:046
-0.117;9.781;-0.043;0.0;0.0;0.0;1875;2021-01-16 16:14:27:056
-0.117;9.781;-0.043;0.0;0.0;0.0;1885;2021-01-16 16:14:27:066
-0.117;9.781;-0.043;0.0;0.0;0.0;1895;2021-01-16 16:14:27:076
-0.117;9.781;-0.043;0.0;0.0;0.0;1905;2021-01-16 16:14:27:086
-0.117;9.781;-0.043;0.0;0.0;0.0;1915;2021-01-16 16:14:27:096
-0.113;9.783;-0.045;0.0;0.0;0.0;1926;2021-01-16 16:14:27:107
-0.113;9.783;-0.045;0.0;0.0;0.0;1935;2021-01-16 16:14:27:116
-0.113;9.783;-0.045;0.0;0.0;0.0;1945;2021-01-16 16:14:27:126
-0.113;9.783;-0.045;0.0;0.0;0.0;1955;2021-01-16 16:14:27:136
-0.113;9.783;-0.045;0.0;0.0;0.0;1968;2021-01-16 16:14:27:149
-0.113;9.783;-0.045;0.0;0.0;0.0;1975;2021-01-16 16:14:27:156
-0.115;9.781;-0.034;0.0;0.0;0.0;1985;2021-01-16 16:14:27:166
-0.115;9.781;-0.034;0.0;0.0;0.0;1995;2021-01-16 16:14:27:176
-0.115;9.781;-0.034;0.0;0.0;0.0;2005;2021-01-16 16:14:27:186
-0.115;9.781;-0.034;0.0;0.0;0.0;2015;2021-01-16 16:14:27:196
-0.115;9.781;-0.034;0.0;0.0;0.0;2025;2021-01-16 16:14:27:206
-0.115;9.781;-0.034;0.0;0.0;0.0;2036;2021-01-16 16:14:27:217
-0.146;9.778;-0.024;0.0;0.0;0.0;2046;2021-01-16 16:14:27:227
-0.146;9.778;-0.024;0.0;0.0;0.0;2057;2021-01-16 16:14:27:238
-0.146;9.778;-0.024;0.0;0.0;0.0;2065;2021-01-16 16:14:27:246
-0.146;9.778;-0.024;0.0;0.0;0.0;2075;2021-01-16 16:14:27:256
-0.146;9.778;-0.024;0.0;0.0;0.0;2085;2021-01-16 16:14:27:266
-0.146;9.778;-0.024;0.0;0.0;0.0;2095;2021-01-16 16:14:27:276
-0.12;9.778;-0.017;0.0;0.0;0.0;2105;2021-01-16 16:14:27:286
-0.12;9.778;-0.017;0.0;0.0;0.0;2115;2021-01-16 16:14:27:296
-0.12;9.778;-0.017;0.0;0.0;0.0;2125;2021-01-16 16:14:27:306
-0.12;9.778;-0.017;0.0;0.0;0.0;2138;2021-01-16 16:14:27:319
-0.12;9.778;-0.017;0.0;0.0;0.0;2146;2021-01-16 16:14:27:327
-0.12;9.778;-0.017;0.0;0.0;0.0;2155;2021-01-16 16:14:27:336
-0.125;9.776;-0.019;0.0;0.0;0.0;2169;2021-01-16 16:14:27:350
-0.125;9.776;-0.019;0.0;0.0;0.0;2176;2021-01-16 16:14:27:357
-0.125;9.776;-0.019;0.0;0.0;0.0;2185;2021-01-16 16:14:27:366
-0.125;9.776;-0.019;0.0;0.0;0.0;2195;2021-01-16 16:14:27:376
-0.125;9.776;-0.019;0.0;0.0;0.0;2207;2021-01-16 16:14:27:388
-0.125;9.776;-0.019;0.0;0.0;0.0;2217;2021-01-16 16:14:27:398
-0.127;9.771;-0.026;0.0;0.0;0.0;2226;2021-01-16 16:14:27:407
-0.127;9.771;-0.026;0.0;0.0;0.0;2239;2021-01-16 16:14:27:420
-0.127;9.771;-0.026;0.0;0.0;0.0;2245;2021-01-16 16:14:27:426
-0.127;9.771;-0.026;0.0;0.0;0.0;2256;2021-01-16 16:14:27:437
-0.127;9.771;-0.026;0.0;0.0;0.0;2267;2021-01-16 16:14:27:448
-0.127;9.771;-0.026;0.0;0.0;0.0;2275;2021-01-16 16:14:27:456
-0.108;9.785;-0.038;0.0;0.0;0.0;2285;2021-01-16 16:14:27:466
-0.108;9.785;-0.038;0.0;0.0;0.0;2296;2021-01-16 16:14:27:477
-0.108;9.785;-0.038;0.0;0.0;0.0;2306;2021-01-16 16:14:27:487
-0.108;9.785;-0.038;0.0;0.0;0.0;2315;2021-01-16 16:14:27:496
-0.108;9.785;-0.038;0.0;0.0;0.0;2326;2021-01-16 16:14:27:507
-0.108;9.785;-0.038;0.0;0.0;0.0;2335;2021-01-16 16:14:27:516
-0.122;9.785;-0.024;0.0;0.0;0.0;2346;2021-01-16 16:14:27:527
-0.122;9.785;-0.024;0.0;0.0;0.0;2356;2021-01-16 16:14:27:537
-0.122;9.785;-0.024;0.0;0.0;0.0;2365;2021-01-16 16:14:27:546
-0.122;9.785;-0.024;0.0;0.0;0.0;2375;2021-01-16 16:14:27:556
-0.122;9.785;-0.024;0.0;0.0;0.0;2385;2021-01-16 16:14:27:566
-0.122;9.785;-0.024;0.0;0.0;0.0;2396;2021-01-16 16:14:27:577
-0.129;9.781;-0.026;0.0;0.0;0.0;2406;2021-01-16 16:14:27:587
-0.129;9.781;-0.026;0.0;0.0;0.0;2415;2021-01-16 16:14:27:596
-0.129;9.781;-0.026;0.0;0.0;0.0;2426;2021-01-16 16:14:27:607
-0.129;9.781;-0.026;0.0;0.0;0.0;2435;2021-01-16 16:14:27:616
-0.129;9.781;-0.026;0.0;0.0;0.0;2445;2021-01-16 16:14:27:626
-0.129;9.781;-0.026;0.0;0.0;0.0;2455;2021-01-16 16:14:27:636
-0.141;9.783;-0.053;0.0;0.0;0.0;2465;2021-01-16 16:14:27:646
-0.141;9.783;-0.053;0.0;0.0;0.0;2475;2021-01-16 16:14:27:656
-0.141;9.783;-0.053;0.0;0.0;0.0;2486;2021-01-16 16:14:27:667
-0.141;9.783;-0.053;0.0;0.0;0.0;2495;2021-01-16 16:14:27:676
-0.141;9.783;-0.053;0.0;0.0;0.0;2505;2021-01-16 16:14:27:686
-0.141;9.783;-0.053;0.0;0.0;0.0;2516;2021-01-16 16:14:27:697
-0.125;9.788;-0.017;0.0;0.0;0.0;2525;2021-01-16 16:14:27:706
-0.125;9.788;-0.017;0.0;0.0;0.0;2535;2021-01-16 16:14:27:716
-0.125;9.788;-0.017;0.0;0.0;0.0;2546;2021-01-16 16:14:27:727
-0.125;9.788;-0.017;0.0;0.0;0.0;2556;2021-01-16 16:14:27:737
-0.125;9.788;-0.017;0.0;-0.001;0.0;2565;2021-01-16 16:14:27:746
-0.125;9.788;-0.017;0.0;-0.001;0.0;2579;2021-01-16 16:14:27:760
-0.129;9.785;-0.029;0.0;-0.001;0.0;2585;2021-01-16 16:14:27:766
-0.129;9.785;-0.029;0.0;-0.001;0.0;2595;2021-01-16 16:14:27:776
-0.129;9.785;-0.029;0.0;-0.001;0.0;2607;2021-01-16 16:14:27:788
-0.129;9.785;-0.029;0.0;-0.001;0.0;2615;2021-01-16 16:14:27:796
-0.129;9.785;-0.029;0.0;-0.001;0.0;2625;2021-01-16 16:14:27:806
-0.129;9.785;-0.029;0.0;-0.001;0.0;2635;2021-01-16 16:14:27:816
-0.136;9.793;-0.045;0.0;-0.001;0.0;2645;2021-01-16 16:14:27:826
-0.136;9.793;-0.045;0.0;-0.001;0.0;2656;2021-01-16 16:14:27:837
-0.136;9.793;-0.045;0.0;-0.001;0.0;2665;2021-01-16 16:14:27:846
-0.136;9.793;-0.045;0.0;-0.001;0.0;2676;2021-01-16 16:14:27:857
-0.136;9.793;-0.045;0.0;0.0;0.0;2685;2021-01-16 16:14:27:866
-0.136;9.793;-0.045;0.0;0.0;0.0;2695;2021-01-16 16:14:27:876
-0.134;9.783;-0.034;0.0;0.0;0.0;2706;2021-01-16 16:14:27:887
-0.134;9.783;-0.034;0.0;0.0;0.0;2715;2021-01-16 16:14:27:896
-0.134;9.783;-0.034;0.0;0.0;0.0;2725;2021-01-16 16:14:27:906
-0.134;9.783;-0.034;0.0;0.0;0.0;2735;2021-01-16 16:14:27:916
-0.134;9.783;-0.034;0.0;0.0;0.0;2745;2021-01-16 16:14:27:926
-0.134;9.783;-0.034;0.0;0.0;0.0;2755;2021-01-16 16:14:27:936
-0.136;9.776;-0.038;0.0;0.0;0.0;2765;2021-01-16 16:14:27:946
-0.136;9.776;-0.038;0.0;0.0;0.0;2775;2021-01-16 16:14:27:956
-0.136;9.776;-0.038;0.0;0.0;0.0;2785;2021-01-16 16:14:27:966
-0.136;9.776;-0.038;0.0;0.0;0.0;2795;2021-01-16 16:14:27:976
-0.136;9.776;-0.038;0.0;0.0;0.0;2807;2021-01-16 16:14:27:988
-0.136;9.776;-0.038;0.0;0.0;0.0;2815;2021-01-16 16:14:27:996
-0.117;9.788;-0.026;0.0;0.0;0.0;2825;2021-01-16 16:14:28:006
-0.117;9.788;-0.026;0.0;0.0;0.0;2835;2021-01-16 16:14:28:016
-0.117;9.788;-0.026;0.0;0.0;0.0;2845;2021-01-16 16:14:28:026
-0.117;9.788;-0.026;0.0;0.0;0.0;2856;2021-01-16 16:14:28:037
-0.117;9.788;-0.026;0.0;0.0;0.0;2865;2021-01-16 16:14:28:046
-0.117;9.788;-0.026;0.0;0.0;0.0;2875;2021-01-16 16:14:28:056
-0.125;9.781;-0.024;0.0;0.0;0.0;2886;2021-01-16 16:14:28:067
-0.125;9.781;-0.024;0.0;0.0;0.0;2896;2021-01-16 16:14:28:077
-0.125;9.781;-0.024;0.0;0.0;0.0;2905;2021-01-16 16:14:28:086
-0.125;9.781;-0.024;0.0;0.0;0.0;2916;2021-01-16 16:14:28:097
-0.125;9.781;-0.024;0.0;0.0;0.0;2926;2021-01-16 16:14:28:107
-0.125;9.781;-0.024;0.0;0.0;0.0;2935;2021-01-16 16:14:28:116
-0.129;9.79;-0.026;0.0;0.0;0.0;2945;2021-01-16 16:14:28:126
-0.129;9.79;-0.026;0.0;0.0;0.0;2955;2021-01-16 16:14:28:136
-0.129;9.79;-0.026;0.0;0.0;0.0;2965;2021-01-16 16:14:28:146
-0.129;9.79;-0.026;0.0;0.0;0.0;2975;2021-01-16 16:14:28:156
-0.129;9.79;-0.026;0.0;0.0;0.0;2985;2021-01-16 16:14:28:166
-0.129;9.79;-0.026;0.0;0.0;0.0;2995;2021-01-16 16:14:28:176
-0.134;9.788;-0.065;0.0;0.0;0.0;3005;2021-01-16 16:14:28:186
-0.134;9.788;-0.065;0.0;0.0;0.0;3015;2021-01-16 16:14:28:196
-0.134;9.788;-0.065;0.0;0.0;0.0;3025;2021-01-16 16:14:28:206
-0.134;9.788;-0.065;0.0;0.0;0.0;3035;2021-01-16 16:14:28:216
-0.134;9.788;-0.065;0.0;0.0;0.0;3046;2021-01-16 16:14:28:227
-0.134;9.788;-0.065;0.0;0.0;0.0;3055;2021-01-16 16:14:28:236
-0.134;9.788;-0.065;0.0;0.0;0.0;3065;2021-01-16 16:14:28:246
-0.134;9.788;-0.065;0.0;0.0;0.0;3075;2021-01-16 16:14:28:256
-0.134;9.788;-0.065;0.0;0.0;0.0;3087;2021-01-16 16:14:28:268
-0.134;9.788;-0.065;0.0;0.0;0.0;3096;2021-01-16 16:14:28:277
-0.134;9.788;-0.065;0.0;0.0;0.0;3106;2021-01-16 16:14:28:287
-0.132;9.778;-0.029;0.0;0.0;0.0;3115;2021-01-16 16:14:28:296
-0.132;9.778;-0.029;0.0;0.0;0.0;3130;2021-01-16 16:14:28:311
-0.132;9.778;-0.029;0.0;0.0;0.0;3135;2021-01-16 16:14:28:316
-0.132;9.778;-0.029;0.0;0.0;0.0;3145;2021-01-16 16:14:28:326
-0.132;9.778;-0.029;0.0;0.0;0.0;3155;2021-01-16 16:14:28:336
-0.132;9.778;-0.029;0.0;0.0;0.0;3168;2021-01-16 16:14:28:349
-0.132;9.778;-0.029;0.0;0.0;0.0;3175;2021-01-16 16:14:28:356
-0.127;9.783;-0.041;0.0;0.0;0.0;3185;2021-01-16 16:14:28:366
-0.127;9.783;-0.041;0.0;0.0;0.0;3196;2021-01-16 16:14:28:377
-0.127;9.783;-0.041;0.0;0.0;0.0;3206;2021-01-16 16:14:28:387
-0.127;9.783;-0.041;0.0;0.0;0.0;3215;2021-01-16 16:14:28:396
-0.127;9.783;-0.041;0.0;0.0;0.0;3225;2021-01-16 16:14:28:406
-0.127;9.783;-0.041;0.0;0.0;0.0;3236;2021-01-16 16:14:28:417
-0.132;9.795;-0.026;0.0;0.0;0.0;3247;2021-01-16 16:14:28:428
-0.132;9.795;-0.026;0.0;0.0;0.0;3255;2021-01-16 16:14:28:436
-0.132;9.795;-0.026;0.0;0.0;0.0;3265;2021-01-16 16:14:28:446
-0.132;9.795;-0.026;0.0;0.0;0.0;3277;2021-01-16 16:14:28:458
-0.132;9.795;-0.026;0.0;0.0;0.0;3288;2021-01-16 16:14:28:469
-0.132;9.795;-0.026;0.0;0.0;0.0;3295;2021-01-16 16:14:28:476
-0.132;9.795;-0.026;0.0;0.0;0.0;3306;2021-01-16 16:14:28:487
-0.153;9.788;-0.029;0.0;0.0;0.0;3315;2021-01-16 16:14:28:496
-0.153;9.788;-0.029;0.0;0.0;0.0;3326;2021-01-16 16:14:28:507
-0.153;9.788;-0.029;0.0;0.0;0.0;3336;2021-01-16 16:14:28:517
-0.153;9.788;-0.029;0.0;0.0;0.0;3349;2021-01-16 16:14:28:530
-0.153;9.788;-0.029;0.0;0.0;0.0;3355;2021-01-16 16:14:28:536
-0.153;9.788;-0.029;0.0;0.0;0.0;3365;2021-01-16 16:14:28:546
-0.153;9.788;-0.029;0.0;0.0;0.0;3375;2021-01-16 16:14:28:556
-0.153;9.788;-0.029;0.0;0.0;0.0;3387;2021-01-16 16:14:28:568
-0.153;9.788;-0.029;0.0;0.0;0.0;3395;2021-01-16 16:14:28:576
-0.153;9.788;-0.029;0.0;0.0;0.0;3405;2021-01-16 16:14:28:586
-0.153;9.788;-0.029;0.0;0.0;0.0;3415;2021-01-16 16:14:28:596
-0.134;9.788;-0.038;0.0;0.0;0.0;3428;2021-01-16 16:14:28:609
-0.134;9.788;-0.038;0.0;0.0;0.0;3443;2021-01-16 16:14:28:624
-0.134;9.788;-0.038;0.0;0.0;0.0;3445;2021-01-16 16:14:28:626
-0.134;9.788;-0.038;0.0;0.0;0.0;3456;2021-01-16 16:14:28:637
-0.134;9.788;-0.038;0.0;0.0;0.0;3466;2021-01-16 16:14:28:647
-0.134;9.788;-0.038;0.0;0.0;0.0;3475;2021-01-16 16:14:28:656
-0.125;9.795;-0.036;0.0;0.0;0.0;3485;2021-01-16 16:14:28:666
-0.125;9.795;-0.036;0.0;0.0;0.0;3495;2021-01-16 16:14:28:676
-0.125;9.795;-0.036;0.0;0.0;0.0;3507;2021-01-16 16:14:28:688
-0.125;9.795;-0.036;0.0;0.0;0.0;3517;2021-01-16 16:14:28:698
-0.125;9.795;-0.036;0.0;0.0;0.0;3527;2021-01-16 16:14:28:708
-0.125;9.795;-0.036;0.0;0.0;0.0;3539;2021-01-16 16:14:28:720
-0.134;9.783;-0.043;0.0;0.0;0.0;3545;2021-01-16 16:14:28:726
-0.134;9.783;-0.043;0.0;0.0;0.0;3555;2021-01-16 16:14:28:736
-0.134;9.783;-0.043;0.0;0.0;0.0;3569;2021-01-16 16:14:28:750
-0.134;9.783;-0.043;0.0;0.0;0.0;3575;2021-01-16 16:14:28:756
-0.134;9.783;-0.043;0.0;0.0;0.0;3585;2021-01-16 16:14:28:766
-0.134;9.783;-0.043;0.0;0.0;0.0;3595;2021-01-16 16:14:28:776
-0.132;9.785;-0.036;0.0;0.0;0.0;3605;2021-01-16 16:14:28:786
-0.132;9.785;-0.036;0.0;0.0;0.0;3615;2021-01-16 16:14:28:796
-0.132;9.785;-0.036;0.0;0.0;0.0;3629;2021-01-16 16:14:28:810
-0.132;9.785;-0.036;0.0;0.0;0.0;3635;2021-01-16 16:14:28:816
-0.132;9.785;-0.036;0.0;0.0;0.0;3645;2021-01-16 16:14:28:826
-0.132;9.785;-0.036;0.0;0.0;0.0;3655;2021-01-16 16:14:28:836
-0.127;9.802;-0.069;0.0;0.0;0.0;3666;2021-01-16 16:14:28:847
-0.127;9.802;-0.069;0.0;0.0;0.0;3677;2021-01-16 16:14:28:858
-0.127;9.802;-0.069;0.0;0.0;0.0;3686;2021-01-16 16:14:28:867
-0.127;9.802;-0.069;0.0;0.0;0.0;3695;2021-01-16 16:14:28:876
-0.127;9.802;-0.069;0.0;0.0;0.0;3705;2021-01-16 16:14:28:886
-0.127;9.802;-0.069;0.0;0.0;0.0;3715;2021-01-16 16:14:28:896
-0.122;9.778;-0.041;0.0;0.0;0.0;3725;2021-01-16 16:14:28:906
-0.122;9.778;-0.041;0.0;0.0;0.0;3735;2021-01-16 16:14:28:916
-0.122;9.778;-0.041;0.0;0.0;0.0;3749;2021-01-16 16:14:28:930
-0.122;9.778;-0.041;0.0;0.0;0.0;3758;2021-01-16 16:14:28:939
-0.122;9.778;-0.041;0.0;0.0;0.0;3765;2021-01-16 16:14:28:946
-0.122;9.778;-0.041;0.0;0.0;0.0;3775;2021-01-16 16:14:28:956
-0.132;9.802;-0.045;0.0;0.0;0.0;3785;2021-01-16 16:14:28:966
-0.132;9.802;-0.045;0.0;0.0;0.0;3795;2021-01-16 16:14:28:976
-0.132;9.802;-0.045;0.0;0.0;0.0;3806;2021-01-16 16:14:28:987
-0.132;9.802;-0.045;0.0;0.0;0.0;3815;2021-01-16 16:14:28:996
-0.132;9.802;-0.045;0.0;0.0;0.0;3825;2021-01-16 16:14:29:006
-0.132;9.802;-0.045;0.0;0.0;0.0;3837;2021-01-16 16:14:29:018
-0.122;9.793;-0.034;0.0;0.0;0.0;3845;2021-01-16 16:14:29:026
-0.122;9.793;-0.034;0.0;0.0;0.0;3855;2021-01-16 16:14:29:036
-0.122;9.793;-0.034;0.0;0.0;0.0;3868;2021-01-16 16:14:29:049
-0.122;9.793;-0.034;0.0;0.0;0.0;3877;2021-01-16 16:14:29:058
-0.122;9.793;-0.034;0.0;0.0;0.0;3885;2021-01-16 16:14:29:066
-0.122;9.793;-0.034;0.0;0.0;0.0;3896;2021-01-16 16:14:29:077
-0.122;9.793;-0.034;0.0;0.0;0.0;3906;2021-01-16 16:14:29:087
-0.136;9.785;-0.05;0.0;0.0;0.0;3915;2021-01-16 16:14:29:096
-0.136;9.785;-0.05;0.0;0.0;0.0;3927;2021-01-16 16:14:29:108
-0.136;9.785;-0.05;0.0;0.0;0.0;3935;2021-01-16 16:14:29:116
-0.136;9.785;-0.05;0.0;0.0;0.0;3947;2021-01-16 16:14:29:128
-0.136;9.785;-0.05;0.0;0.0;0.0;3955;2021-01-16 16:14:29:136
-0.129;9.79;-0.045;0.0;0.0;0.0;3965;2021-01-16 16:14:29:146
-0.129;9.79;-0.045;0.0;0.0;0.0;3975;2021-01-16 16:14:29:156
-0.129;9.79;-0.045;0.0;0.0;0.0;3985;2021-01-16 16:14:29:166
-0.129;9.79;-0.045;0.0;0.0;0.0;3995;2021-01-16 16:14:29:176
-0.129;9.79;-0.045;0.0;0.0;0.0;4005;2021-01-16 16:14:29:186
-0.129;9.79;-0.045;0.0;0.0;0.0;4015;2021-01-16 16:14:29:196
-0.129;9.79;-0.045;0.0;0.0;0.0;4025;2021-01-16 16:14:29:206
-0.125;9.781;-0.041;0.0;0.0;0.0;4036;2021-01-16 16:14:29:217
-0.125;9.781;-0.041;0.0;0.0;0.0;4045;2021-01-16 16:14:29:226
-0.125;9.781;-0.041;0.0;0.0;0.0;4060;2021-01-16 16:14:29:241
-0.125;9.781;-0.041;0.0;0.0;0.0;4065;2021-01-16 16:14:29:246
-0.125;9.781;-0.041;0.0;0.0;0.0;4078;2021-01-16 16:14:29:259
-0.132;9.769;-0.053;0.0;0.0;0.0;4085;2021-01-16 16:14:29:266
-0.132;9.769;-0.053;0.0;0.0;0.0;4096;2021-01-16 16:14:29:277
-0.132;9.769;-0.053;0.0;0.0;0.0;4105;2021-01-16 16:14:29:286
-0.132;9.769;-0.053;0.0;0.0;0.0;4116;2021-01-16 16:14:29:297
-0.132;9.769;-0.053;0.0;0.0;0.0;4130;2021-01-16 16:14:29:311
-0.132;9.769;-0.053;0.0;0.0;0.0;4135;2021-01-16 16:14:29:316
-0.127;9.795;-0.041;0.0;0.0;0.0;4145;2021-01-16 16:14:29:326
-0.127;9.795;-0.041;0.0;0.0;0.0;4156;2021-01-16 16:14:29:337
-0.127;9.795;-0.041;0.0;0.0;0.0;4165;2021-01-16 16:14:29:346
-0.127;9.795;-0.041;0.0;0.0;0.0;4176;2021-01-16 16:14:29:357
-0.127;9.795;-0.041;0.0;0.0;0.0;4185;2021-01-16 16:14:29:366
-0.127;9.795;-0.041;0.0;0.0;0.0;4195;2021-01-16 16:14:29:376
-0.136;9.778;-0.055;0.0;0.0;0.0;4205;2021-01-16 16:14:29:386
-0.136;9.778;-0.055;0.0;0.0;0.0;4215;2021-01-16 16:14:29:396
-0.136;9.778;-0.055;0.0;0.0;0.0;4226;2021-01-16 16:14:29:407
-0.136;9.778;-0.055;0.0;0.0;0.0;4235;2021-01-16 16:14:29:416
-0.136;9.778;-0.055;0.0;0.0;0.0;4245;2021-01-16 16:14:29:426
-0.136;9.778;-0.055;0.0;0.0;0.0;4255;2021-01-16 16:14:29:436
-0.125;9.781;-0.038;0.0;0.0;0.0;4265;2021-01-16 16:14:29:446
-0.125;9.781;-0.038;0.0;0.0;0.0;4277;2021-01-16 16:14:29:458
-0.125;9.781;-0.038;0.0;0.0;0.0;4285;2021-01-16 16:14:29:466
-0.125;9.781;-0.038;0.0;0.0;0.0;4295;2021-01-16 16:14:29:476
-0.125;9.781;-0.038;0.0;0.0;0.0;4305;2021-01-16 16:14:29:486
-0.125;9.781;-0.038;0.0;0.0;0.0;4315;2021-01-16 16:14:29:496
-0.129;9.793;-0.036;0.0;0.0;0.0;4325;2021-01-16 16:14:29:506
-0.129;9.793;-0.036;0.0;0.0;0.0;4335;2021-01-16 16:14:29:516
-0.129;9.793;-0.036;0.0;0.0;0.0;4345;2021-01-16 16:14:29:526
-0.129;9.793;-0.036;0.0;0.0;0.0;4359;2021-01-16 16:14:29:540
-0.129;9.793;-0.036;0.0;0.0;0.0;4368;2021-01-16 16:14:29:549
-0.129;9.793;-0.036;0.0;0.0;0.0;4375;2021-01-16 16:14:29:556
-0.122;9.778;-0.034;0.0;0.0;0.0;4385;2021-01-16 16:14:29:566
-0.122;9.778;-0.034;0.0;0.0;0.0;4395;2021-01-16 16:14:29:576
-0.122;9.778;-0.034;0.0;0.0;0.0;4406;2021-01-16 16:14:29:587
-0.122;9.778;-0.034;0.0;0.0;0.0;4415;2021-01-16 16:14:29:596
-0.122;9.778;-0.034;0.0;0.0;0.0;4425;2021-01-16 16:14:29:606
-0.122;9.778;-0.034;0.0;0.0;0.0;4435;2021-01-16 16:14:29:616
-0.132;9.773;-0.038;0.0;0.0;0.0;4446;2021-01-16 16:14:29:627
-0.132;9.773;-0.038;0.0;0.0;0.0;4455;2021-01-16 16:14:29:636
-0.132;9.773;-0.038;0.0;0.0;0.0;4465;2021-01-16 16:14:29:646
-0.132;9.773;-0.038;0.0;0.0;0.0;4477;2021-01-16 16:14:29:658
-0.132;9.773;-0.038;0.0;0.0;0.0;4485;2021-01-16 16:14:29:666
-0.132;9.773;-0.038;0.0;0.0;0.0;4495;2021-01-16 16:14:29:676
-0.125;9.783;-0.036;0.0;0.0;0.0;4508;2021-01-16 16:14:29:689
-0.125;9.783;-0.036;0.0;0.0;0.0;4515;2021-01-16 16:14:29:696
-0.125;9.783;-0.036;0.0;0.0;0.0;4526;2021-01-16 16:14:29:707
-0.125;9.783;-0.036;0.0;0.0;0.0;4535;2021-01-16 16:14:29:716
-0.125;9.783;-0.036;0.0;0.0;0.0;4545;2021-01-16 16:14:29:726
-0.125;9.783;-0.036;0.0;0.0;0.0;4556;2021-01-16 16:14:29:737
-0.127;9.785;-0.062;0.0;0.0;0.0;4565;2021-01-16 16:14:29:746
-0.127;9.785;-0.062;0.0;0.0;0.0;4575;2021-01-16 16:14:29:756
-0.127;9.785;-0.062;0.0;0.0;0.0;4585;2021-01-16 16:14:29:766
-0.127;9.785;-0.062;0.0;0.0;0.0;4595;2021-01-16 16:14:29:776
-0.127;9.785;-0.062;0.0;0.001;0.0;4606;2021-01-16 16:14:29:787
-0.127;9.785;-0.062;0.0;0.001;0.0;4615;2021-01-16 16:14:29:796
-0.134;9.769;-0.05;0.0;0.001;0.0;4625;2021-01-16 16:14:29:806
-0.134;9.769;-0.05;0.0;0.001;0.0;4635;2021-01-16 16:14:29:816
-0.134;9.769;-0.05;0.0;0.001;0.0;4646;2021-01-16 16:14:29:827
-0.134;9.769;-0.05;0.0;0.001;0.0;4655;2021-01-16 16:14:29:836
-0.134;9.769;-0.05;0.0;0.001;0.0;4665;2021-01-16 16:14:29:846
-0.134;9.769;-0.05;0.0;0.001;0.0;4675;2021-01-16 16:14:29:856
-0.134;9.785;-0.043;0.0;0.001;0.0;4685;2021-01-16 16:14:29:866
-0.134;9.785;-0.043;0.0;0.001;0.0;4695;2021-01-16 16:14:29:876
-0.134;9.785;-0.043;0.0;0.001;0.0;4705;2021-01-16 16:14:29:886
-0.134;9.785;-0.043;0.0;0.001;0.0;4718;2021-01-16 16:14:29:899
-0.134;9.785;-0.043;0.0;0.0;0.0;4725;2021-01-16 16:14:29:906
-0.134;9.785;-0.043;0.0;0.0;0.0;4735;2021-01-16 16:14:29:916
-0.134;9.79;-0.029;0.0;0.0;0.0;4745;2021-01-16 16:14:29:926
-0.134;9.79;-0.029;0.0;0.0;0.0;4762;2021-01-16 16:14:29:943
-0.134;9.79;-0.029;0.0;0.0;0.0;4767;2021-01-16 16:14:29:948
-0.134;9.79;-0.029;0.0;0.0;0.0;4776;2021-01-16 16:14:29:957
-0.134;9.79;-0.029;0.0;0.0;0.0;4785;2021-01-16 16:14:29:966
-0.134;9.79;-0.029;0.0;0.0;0.0;4795;2021-01-16 16:14:29:976
-0.127;9.771;-0.055;0.0;0.0;0.0;4806;2021-01-16 16:14:29:987
-0.127;9.771;-0.055;0.0;0.0;0.0;4815;2021-01-16 16:14:29:996
-0.127;9.771;-0.055;0.0;0.0;0.0;4825;2021-01-16 16:14:30:006
-0.127;9.771;-0.055;0.0;0.0;0.0;4836;2021-01-16 16:14:30:017
-0.127;9.771;-0.055;0.0;0.0;0.0;4845;2021-01-16 16:14:30:026
-0.127;9.771;-0.055;0.0;0.001;0.0;4856;2021-01-16 16:14:30:037
-0.125;9.79;-0.038;0.0;0.001;0.0;4866;2021-01-16 16:14:30:047
-0.125;9.79;-0.038;0.0;0.001;0.0;4875;2021-01-16 16:14:30:056
-0.125;9.79;-0.038;0.0;0.001;0.0;4885;2021-01-16 16:14:30:066
-0.125;9.79;-0.038;0.0;0.001;0.0;4896;2021-01-16 16:14:30:077
-0.125;9.79;-0.038;0.0;0.001;0.0;4906;2021-01-16 16:14:30:087
-0.125;9.79;-0.038;0.0;0.001;0.0;4915;2021-01-16 16:14:30:096
-0.122;9.776;-0.05;0.0;0.001;0.0;4926;2021-01-16 16:14:30:107
-0.122;9.776;-0.05;0.0;0.001;0.0;4935;2021-01-16 16:14:30:116
-0.122;9.776;-0.05;0.0;0.001;0.0;4945;2021-01-16 16:14:30:126
-0.122;9.776;-0.05;0.0;0.001;0.0;4955;2021-01-16 16:14:30:136
-0.122;9.776;-0.05;0.0;0.001;0.0;4967;2021-01-16 16:14:30:148
-0.122;9.776;-0.05;0.0;0.001;0.0;4975;2021-01-16 16:14:30:156
-0.122;9.778;-0.045;0.0;0.001;0.0;4985;2021-01-16 16:14:30:166
-0.122;9.778;-0.045;0.0;0.001;0.0;4996;2021-01-16 16:14:30:177
-0.122;9.778;-0.045;0.0;0.001;0.0;5010;2021-01-16 16:14:30:191
-0.122;9.778;-0.045;0.0;0.001;0.0;5015;2021-01-16 16:14:30:196
-0.122;9.778;-0.045;0.0;0.001;0.0;5025;2021-01-16 16:14:30:206
-0.122;9.778;-0.045;0.0;0.001;0.0;5035;2021-01-16 16:14:30:216
-0.141;9.781;-0.019;0.0;0.001;0.0;5047;2021-01-16 16:14:30:228
-0.141;9.781;-0.019;0.0;0.001;0.0;5055;2021-01-16 16:14:30:236
-0.141;9.781;-0.019;0.0;0.001;0.0;5067;2021-01-16 16:14:30:248
-0.141;9.781;-0.019;0.0;0.001;0.0;5075;2021-01-16 16:14:30:256
-0.141;9.781;-0.019;0.0;0.0;0.0;5085;2021-01-16 16:14:30:266
-0.141;9.781;-0.019;0.0;0.0;0.0;5095;2021-01-16 16:14:30:276
-0.132;9.776;-0.053;0.0;0.0;0.0;5105;2021-01-16 16:14:30:286
-0.132;9.776;-0.053;0.0;0.0;0.0;5115;2021-01-16 16:14:30:296
-0.132;9.776;-0.053;0.0;0.0;0.0;5126;2021-01-16 16:14:30:307
-0.132;9.776;-0.053;0.0;0.0;0.0;5135;2021-01-16 16:14:30:316
-0.132;9.776;-0.053;0.0;0.0;0.0;5147;2021-01-16 16:14:30:328
-0.146;9.785;-0.05;0.0;0.0;0.0;5164;2021-01-16 16:14:30:345
-0.146;9.785;-0.05;0.0;0.0;0.0;5165;2021-01-16 16:14:30:346
-0.146;9.785;-0.05;0.0;0.0;0.0;5175;2021-01-16 16:14:30:356
-0.146;9.785;-0.05;0.0;0.0;0.0;5185;2021-01-16 16:14:30:366
-0.146;9.785;-0.05;0.0;0.0;0.0;5195;2021-01-16 16:14:30:376
-0.146;9.785;-0.05;0.0;0.001;0.0;5205;2021-01-16 16:14:30:386
-0.146;9.785;-0.05;0.0;0.001;0.0;5215;2021-01-16 16:14:30:396
-0.134;9.773;-0.024;0.0;0.001;0.0;5226;2021-01-16 16:14:30:407
-0.134;9.773;-0.024;0.0;0.001;0.0;5235;2021-01-16 16:14:30:416
-0.134;9.773;-0.024;0.0;0.001;0.0;5246;2021-01-16 16:14:30:427
-0.134;9.773;-0.024;0.0;0.001;0.0;5255;2021-01-16 16:14:30:436
-0.134;9.773;-0.024;0.0;0.001;0.0;5265;2021-01-16 16:14:30:446
-0.134;9.773;-0.024;0.0;0.001;0.0;5275;2021-01-16 16:14:30:456
-0.144;9.793;-0.041;0.0;0.001;0.0;5286;2021-01-16 16:14:30:467
-0.144;9.793;-0.041;0.0;0.001;0.0;5296;2021-01-16 16:14:30:477
-0.144;9.793;-0.041;0.0;0.001;0.0;5307;2021-01-16 16:14:30:488
-0.144;9.793;-0.041;0.0;0.001;0.0;5315;2021-01-16 16:14:30:496
-0.144;9.793;-0.041;0.0;0.0;0.0;5327;2021-01-16 16:14:30:508
-0.144;9.793;-0.041;0.0;0.0;0.0;5335;2021-01-16 16:14:30:516
-0.144;9.793;-0.041;0.0;0.0;0.0;5348;2021-01-16 16:14:30:529
-0.132;9.778;-0.043;0.0;0.0;0.0;5356;2021-01-16 16:14:30:537
-0.132;9.778;-0.043;0.0;0.0;0.0;5365;2021-01-16 16:14:30:546
-0.132;9.778;-0.043;0.0;0.0;0.0;5380;2021-01-16 16:14:30:561
-0.132;9.778;-0.043;0.0;0.0;0.0;5385;2021-01-16 16:14:30:566
-0.132;9.778;-0.043;0.0;0.0;0.0;5395;2021-01-16 16:14:30:576
-0.132;9.778;-0.043;0.0;0.0;0.0;5406;2021-01-16 16:14:30:587
-0.132;9.778;-0.043;0.0;0.0;0.0;5415;2021-01-16 16:14:30:596
-0.122;9.783;-0.048;0.0;0.0;0.0;5425;2021-01-16 16:14:30:606
-0.122;9.783;-0.048;0.0;0.0;0.0;5435;2021-01-16 16:14:30:616
-0.122;9.783;-0.048;0.0;0.0;0.0;5445;2021-01-16 16:14:30:626
-0.122;9.783;-0.048;0.0;0.0;0.0;5455;2021-01-16 16:14:30:636
-0.122;9.783;-0.048;0.0;0.0;0.0;5465;2021-01-16 16:14:30:646
-0.122;9.783;-0.048;0.0;0.0;0.0;5475;2021-01-16 16:14:30:656
-0.122;9.783;-0.048;0.0;0.0;0.0;5485;2021-01-16 16:14:30:666
-0.122;9.783;-0.048;0.0;0.0;0.0;5495;2021-01-16 16:14:30:676
-0.122;9.783;-0.048;0.0;0.0;0.0;5505;2021-01-16 16:14:30:686
-0.122;9.783;-0.048;0.0;0.0;0.0;5515;2021-01-16 16:14:30:696
-0.129;9.793;-0.048;0.0;0.0;0.0;5525;2021-01-16 16:14:30:706
-0.129;9.793;-0.048;0.0;0.0;0.0;5535;2021-01-16 16:14:30:716
-0.129;9.793;-0.048;0.0;0.0;0.0;5545;2021-01-16 16:14:30:726
-0.129;9.793;-0.048;0.0;0.0;0.0;5555;2021-01-16 16:14:30:736
-0.129;9.793;-0.048;0.0;0.0;0.0;5565;2021-01-16 16:14:30:746
-0.129;9.793;-0.048;0.0;0.0;0.0;5576;2021-01-16 16:14:30:757
-0.127;9.776;-0.057;0.0;0.0;0.0;5585;2021-01-16 16:14:30:766
-0.127;9.776;-0.057;0.0;0.0;0.0;5595;2021-01-16 16:14:30:776
-0.127;9.776;-0.057;0.0;0.0;0.0;5605;2021-01-16 16:14:30:786
-0.127;9.776;-0.057;0.0;0.0;0.0;5615;2021-01-16 16:14:30:796
-0.127;9.776;-0.057;0.0;0.0;0.0;5625;2021-01-16 16:14:30:806
-0.127;9.776;-0.057;0.0;0.0;0.0;5635;2021-01-16 16:14:30:816
-0.129;9.793;-0.038;0.0;0.0;0.0;5645;2021-01-16 16:14:30:826
-0.129;9.793;-0.038;0.0;0.0;0.0;5656;2021-01-16 16:14:30:837
-0.129;9.793;-0.038;0.0;0.0;0.0;5665;2021-01-16 16:14:30:846
-0.129;9.793;-0.038;0.0;0.0;0.0;5675;2021-01-16 16:14:30:856
-0.129;9.793;-0.038;0.0;0.0;0.0;5685;2021-01-16 16:14:30:866
-0.129;9.793;-0.038;0.0;0.0;0.0;5695;2021-01-16 16:14:30:876
-0.122;9.79;-0.057;0.0;0.0;0.0;5707;2021-01-16 16:14:30:888
-0.122;9.79;-0.057;0.0;0.0;0.0;5715;2021-01-16 16:14:30:896
-0.122;9.79;-0.057;0.0;0.0;0.0;5725;2021-01-16 16:14:30:906
-0.122;9.79;-0.057;0.0;0.0;0.0;5736;2021-01-16 16:14:30:917
-0.122;9.79;-0.057;0.0;0.0;0.0;5745;2021-01-16 16:14:30:926
-0.122;9.781;-0.048;0.0;0.0;0.0;5769;2021-01-16 16:14:30:950
-0.122;9.781;-0.048;0.0;0.0;0.0;5771;2021-01-16 16:14:30:952
-0.122;9.781;-0.048;0.0;0.0;0.0;5775;2021-01-16 16:14:30:956
-0.122;9.781;-0.048;0.0;0.0;0.0;5785;2021-01-16 16:14:30:966
-0.122;9.781;-0.048;0.0;0.0;0.0;5795;2021-01-16 16:14:30:976
-0.122;9.781;-0.048;0.0;0.0;0.0;5805;2021-01-16 16:14:30:986
-0.122;9.781;-0.048;0.0;0.0;0.0;5815;2021-01-16 16:14:30:996
-0.127;9.771;-0.045;0.0;0.0;0.0;5825;2021-01-16 16:14:31:006
-0.127;9.771;-0.045;0.0;0.0;0.0;5836;2021-01-16 16:14:31:017
-0.127;9.771;-0.045;0.0;0.0;0.0;5845;2021-01-16 16:14:31:026
-0.127;9.771;-0.045;0.0;0.0;0.0;5862;2021-01-16 16:14:31:043
-0.127;9.771;-0.045;0.0;0.0;0.0;5865;2021-01-16 16:14:31:046
-0.127;9.771;-0.045;0.0;0.001;0.0;5875;2021-01-16 16:14:31:056
-0.127;9.778;-0.045;0.0;0.001;0.0;5885;2021-01-16 16:14:31:066
-0.127;9.778;-0.045;0.0;0.001;0.0;5897;2021-01-16 16:14:31:078
-0.127;9.778;-0.045;0.0;0.001;0.0;5905;2021-01-16 16:14:31:086
-0.127;9.778;-0.045;0.0;0.001;0.0;5915;2021-01-16 16:14:31:096
-0.127;9.778;-0.045;0.0;0.001;0.0;5926;2021-01-16 16:14:31:107
-0.127;9.778;-0.045;0.0;0.001;0.0;5935;2021-01-16 16:14:31:116
-0.136;9.773;-0.022;0.0;0.001;0.0;5946;2021-01-16 16:14:31:127
-0.136;9.773;-0.022;0.0;0.001;0.0;5957;2021-01-16 16:14:31:138
-0.136;9.773;-0.022;0.0;0.001;0.0;5965;2021-01-16 16:14:31:146
-0.136;9.773;-0.022;0.0;0.001;0.0;5975;2021-01-16 16:14:31:156
-0.136;9.773;-0.022;0.0;0.0;0.0;5985;2021-01-16 16:14:31:166
-0.136;9.773;-0.022;0.0;0.0;0.0;5998;2021-01-16 16:14:31:179
-0.115;9.788;-0.031;0.0;0.0;0.0;6005;2021-01-16 16:14:31:186
-0.115;9.788;-0.031;0.0;0.0;0.0;6015;2021-01-16 16:14:31:196
-0.115;9.788;-0.031;0.0;0.0;0.0;6025;2021-01-16 16:14:31:206
-0.115;9.788;-0.031;0.0;0.0;0.0;6035;2021-01-16 16:14:31:216
-0.115;9.788;-0.031;0.0;0.0;0.0;6046;2021-01-16 16:14:31:227
-0.115;9.788;-0.031;0.0;0.0;0.0;6056;2021-01-16 16:14:31:237
-0.129;9.785;-0.048;0.0;0.0;0.0;6066;2021-01-16 16:14:31:247
-0.129;9.785;-0.048;0.0;0.0;0.0;6075;2021-01-16 16:14:31:256
-0.129;9.785;-0.048;0.0;0.0;0.0;6085;2021-01-16 16:14:31:266
-0.129;9.785;-0.048;0.0;0.0;0.0;6096;2021-01-16 16:14:31:277
-0.129;9.785;-0.048;0.0;0.001;0.0;6105;2021-01-16 16:14:31:286
-0.129;9.785;-0.048;0.0;0.001;0.0;6116;2021-01-16 16:14:31:297
-0.129;9.785;-0.041;0.0;0.001;0.0;6126;2021-01-16 16:14:31:307
-0.129;9.785;-0.041;0.0;0.001;0.0;6135;2021-01-16 16:14:31:316
-0.129;9.785;-0.041;0.0;0.001;0.0;6145;2021-01-16 16:14:31:326
-0.129;9.785;-0.041;0.0;0.001;0.0;6155;2021-01-16 16:14:31:336
-0.129;9.785;-0.041;0.0;0.001;0.0;6165;2021-01-16 16:14:31:346
-0.129;9.785;-0.041;0.0;0.001;0.0;6175;2021-01-16 16:14:31:356
-0.132;9.79;-0.05;0.0;0.001;0.0;6185;2021-01-16 16:14:31:366
-0.132;9.79;-0.05;0.0;0.001;0.0;6195;2021-01-16 16:14:31:376
-0.132;9.79;-0.05;0.0;0.001;0.0;6206;2021-01-16 16:14:31:387
-0.132;9.79;-0.05;0.0;0.001;0.0;6215;2021-01-16 16:14:31:396
-0.132;9.79;-0.05;0.0;0.001;0.0;6226;2021-01-16 16:14:31:407
-0.132;9.79;-0.05;0.0;0.001;0.0;6235;2021-01-16 16:14:31:416
-0.132;9.79;-0.05;0.0;0.0;0.0;6245;2021-01-16 16:14:31:426
-0.134;9.797;-0.031;0.0;0.0;0.0;6256;2021-01-16 16:14:31:437
-0.134;9.797;-0.031;0.0;0.0;0.0;6266;2021-01-16 16:14:31:447
-0.134;9.797;-0.031;0.0;0.0;0.0;6280;2021-01-16 16:14:31:461
-0.134;9.797;-0.031;0.0;0.0;0.0;6286;2021-01-16 16:14:31:467
-0.134;9.797;-0.031;0.0;0.0;0.0;6295;2021-01-16 16:14:31:476
-0.134;9.797;-0.031;0.0;0.0;0.0;6305;2021-01-16 16:14:31:486
-0.134;9.797;-0.031;0.0;0.0;0.0;6317;2021-01-16 16:14:31:498
-0.134;9.797;-0.031;0.0;0.0;0.0;6326;2021-01-16 16:14:31:507
-0.134;9.797;-0.031;0.0;0.0;0.0;6335;2021-01-16 16:14:31:516
-0.134;9.797;-0.031;0.0;0.0;0.0;6345;2021-01-16 16:14:31:526
-0.134;9.797;-0.031;0.0;0.0;0.0;6355;2021-01-16 16:14:31:536
-0.113;9.776;-0.043;0.0;0.0;0.0;6366;2021-01-16 16:14:31:547
-0.113;9.776;-0.043;0.0;0.0;0.0;6375;2021-01-16 16:14:31:556
-0.113;9.776;-0.043;0.0;0.0;0.0;6385;2021-01-16 16:14:31:566
-0.113;9.776;-0.043;0.0;0.0;0.0;6395;2021-01-16 16:14:31:576
-0.113;9.776;-0.043;0.0;0.0;0.0;6405;2021-01-16 16:14:31:586
-0.113;9.776;-0.043;0.0;0.0;0.0;6415;2021-01-16 16:14:31:596
-0.125;9.788;-0.034;0.0;0.0;0.0;6425;2021-01-16 16:14:31:606
-0.125;9.788;-0.034;0.0;0.0;0.0;6435;2021-01-16 16:14:31:616
-0.125;9.788;-0.034;0.0;0.0;0.0;6445;2021-01-16 16:14:31:626
-0.125;9.788;-0.034;0.0;0.0;0.0;6456;2021-01-16 16:14:31:637
-0.125;9.788;-0.034;0.0;0.0;0.0;6465;2021-01-16 16:14:31:646
-0.125;9.788;-0.034;0.0;0.0;0.0;6477;2021-01-16 16:14:31:658
-0.125;9.778;-0.036;0.0;0.0;0.0;6485;2021-01-16 16:14:31:666
-0.125;9.778;-0.036;0.0;0.0;0.0;6496;2021-01-16 16:14:31:677
-0.125;9.778;-0.036;0.0;0.0;0.0;6505;2021-01-16 16:14:31:686
-0.125;9.778;-0.036;0.0;0.0;0.0;6515;2021-01-16 16:14:31:696
-0.125;9.778;-0.036;0.0;0.0;0.0;6526;2021-01-16 16:14:31:707
-0.125;9.778;-0.036;0.0;0.0;0.0;6535;2021-01-16 16:14:31:716
-0.125;9.778;-0.036;0.0;0.0;0.0;6545;2021-01-16 16:14:31:726
-0.12;9.788;-0.036;0.0;0.0;0.0;6555;2021-01-16 16:14:31:736
-0.12;9.788;-0.036;0.0;0.0;0.0;6566;2021-01-16 16:14:31:747
-0.12;9.788;-0.036;0.0;0.0;0.0;6575;2021-01-16 16:14:31:756
-0.12;9.788;-0.036;0.0;0.0;0.0;6585;2021-01-16 16:14:31:766
-0.12;9.788;-0.036;0.0;0.0;0.0;6595;2021-01-16 16:14:31:776
-0.12;9.788;-0.036;0.0;0.0;0.0;6605;2021-01-16 16:14:31:786
-0.12;9.788;-0.036;0.0;0.0;0.0;6614;2021-01-16 16:14:31:795
-0.12;9.788;-0.036;0.0;0.0;0.0;6625;2021-01-16 16:14:31:806
-0.12;9.788;-0.036;0.0;0.0;0.0;6635;2021-01-16 16:14:31:816
-0.12;9.788;-0.036;0.0;0.0;0.0;6645;2021-01-16 16:14:31:826
-0.12;9.788;-0.036;0.0;0.0;0.0;6655;2021-01-16 16:14:31:836
-0.12;9.788;-0.036;0.0;0.0;0.0;6666;2021-01-16 16:14:31:847
-0.12;9.788;-0.036;0.0;0.0;0.0;6675;2021-01-16 16:14:31:856
-0.12;9.788;-0.036;0.0;0.0;0.0;6685;2021-01-16 16:14:31:866
-0.12;9.788;-0.036;0.0;0.0;0.0;6696;2021-01-16 16:14:31:877
-0.122;9.778;-0.043;0.0;0.0;0.0;6707;2021-01-16 16:14:31:888
-0.122;9.778;-0.043;0.0;0.0;0.0;6716;2021-01-16 16:14:31:897
-0.122;9.778;-0.043;0.0;0.0;0.0;6728;2021-01-16 16:14:31:909
-0.122;9.778;-0.043;0.0;0.0;0.0;6736;2021-01-16 16:14:31:917
-0.122;9.778;-0.043;0.0;0.0;0.0;6749;2021-01-16 16:14:31:930
-0.122;9.778;-0.043;0.0;0.0;0.0;6755;2021-01-16 16:14:31:936
-0.122;9.778;-0.043;0.0;0.0;0.0;6765;2021-01-16 16:14:31:946
-0.122;9.778;-0.043;0.0;0.0;0.0;6775;2021-01-16 16:14:31:956
-0.132;9.783;-0.048;0.0;0.0;0.0;6785;2021-01-16 16:14:31:966
-0.132;9.783;-0.048;0.0;0.0;0.0;6795;2021-01-16 16:14:31:976
-0.132;9.783;-0.048;0.0;0.0;0.0;6805;2021-01-16 16:14:31:986
-0.132;9.783;-0.048;0.0;0.0;0.0;6815;2021-01-16 16:14:31:996
-0.132;9.783;-0.048;0.0;0.0;0.0;6825;2021-01-16 16:14:32:006
-0.132;9.783;-0.048;0.0;0.0;0.0;6835;2021-01-16 16:14:32:016
-0.129;9.781;-0.034;0.0;0.0;0.0;6846;2021-01-16 16:14:32:027
-0.129;9.781;-0.034;0.0;0.0;0.0;6855;2021-01-16 16:14:32:036
-0.129;9.781;-0.034;0.0;0.0;0.0;6865;2021-01-16 16:14:32:046
-0.129;9.781;-0.034;0.0;0.0;0.0;6875;2021-01-16 16:14:32:056
-0.129;9.781;-0.034;0.0;0.0;0.0;6885;2021-01-16 16:14:32:066
-0.129;9.781;-0.034;0.0;0.0;0.0;6895;2021-01-16 16:14:32:076
-0.129;9.776;-0.045;0.0;0.0;0.0;6905;2021-01-16 16:14:32:086
-0.129;9.776;-0.045;0.0;0.0;0.0;6915;2021-01-16 16:14:32:096
-0.129;9.776;-0.045;0.0;0.0;0.0;6930;2021-01-16 16:14:32:111
-0.129;9.776;-0.045;0.0;0.0;0.0;6935;2021-01-16 16:14:32:116
-0.129;9.776;-0.045;0.0;0.0;0.0;6945;2021-01-16 16:14:32:126
-0.129;9.776;-0.045;0.0;0.001;0.0;6955;2021-01-16 16:14:32:136
-0.12;9.788;-0.036;0.0;0.001;0.0;6966;2021-01-16 16:14:32:147
-0.12;9.788;-0.036;0.0;0.001;0.0;6975;2021-01-16 16:14:32:156
-0.12;9.788;-0.036;0.0;0.001;0.0;6985;2021-01-16 16:14:32:166
-0.12;9.788;-0.036;0.0;0.001;0.0;6998;2021-01-16 16:14:32:179
-0.12;9.788;-0.036;0.0;0.001;0.0;7005;2021-01-16 16:14:32:186
-0.12;9.788;-0.036;0.0;0.001;0.0;7015;2021-01-16 16:14:32:196
-0.127;9.79;-0.036;0.0;0.001;0.0;7025;2021-01-16 16:14:32:206
-0.127;9.79;-0.036;0.0;0.001;0.0;7035;2021-01-16 16:14:32:216
-0.127;9.79;-0.036;0.0;0.001;0.0;7045;2021-01-16 16:14:32:226
-0.127;9.79;-0.036;0.0;0.001;0.0;7055;2021-01-16 16:14:32:236
-0.127;9.79;-0.036;0.0;0.0;0.0;7065;2021-01-16 16:14:32:246
-0.127;9.79;-0.036;0.0;0.0;0.0;7075;2021-01-16 16:14:32:256
-0.129;9.773;-0.045;0.0;0.0;0.0;7085;2021-01-16 16:14:32:266
-0.129;9.773;-0.045;0.0;0.0;0.0;7095;2021-01-16 16:14:32:276
-0.129;9.773;-0.045;0.0;0.0;0.0;7105;2021-01-16 16:14:32:286
-0.129;9.773;-0.045;0.0;0.0;0.0;7116;2021-01-16 16:14:32:297
-0.129;9.773;-0.045;0.0;0.0;0.0;7125;2021-01-16 16:14:32:306
-0.129;9.773;-0.045;0.0;0.0;0.0;7136;2021-01-16 16:14:32:317
-0.125;9.781;-0.041;0.0;0.0;0.0;7145;2021-01-16 16:14:32:326
-0.125;9.781;-0.041;0.0;0.0;0.0;7157;2021-01-16 16:14:32:338
-0.125;9.781;-0.041;0.0;0.0;0.0;7165;2021-01-16 16:14:32:346
-0.125;9.781;-0.041;0.0;0.0;0.0;7177;2021-01-16 16:14:32:358
-0.125;9.781;-0.041;0.0;0.001;0.0;7185;2021-01-16 16:14:32:366
-0.125;9.781;-0.041;0.0;0.001;0.0;7196;2021-01-16 16:14:32:377
-0.132;9.776;-0.031;0.0;0.001;0.0;7206;2021-01-16 16:14:32:387
-0.132;9.776;-0.031;0.0;0.001;0.0;7224;2021-01-16 16:14:32:405
-0.132;9.776;-0.031;0.0;0.001;0.0;7224;2021-01-16 16:14:32:405
-0.132;9.776;-0.031;0.0;0.001;0.0;7235;2021-01-16 16:14:32:416
-0.132;9.776;-0.031;0.0;0.001;0.0;7245;2021-01-16 16:14:32:426
-0.132;9.776;-0.031;0.0;0.001;0.0;7255;2021-01-16 16:14:32:436
-0.129;9.8;-0.036;0.0;0.001;0.0;7266;2021-01-16 16:14:32:447
-0.129;9.8;-0.036;0.0;0.001;0.0;7276;2021-01-16 16:14:32:457
-0.129;9.8;-0.036;0.0;0.001;0.0;7285;2021-01-16 16:14:32:466
-0.129;9.8;-0.036;0.0;0.001;0.0;7295;2021-01-16 16:14:32:476
-0.129;9.8;-0.036;0.0;0.0;0.0;7306;2021-01-16 16:14:32:487
-0.129;9.8;-0.036;0.0;0.0;0.0;7315;2021-01-16 16:14:32:496
-0.136;9.778;-0.043;0.0;0.0;0.0;7325;2021-01-16 16:14:32:506
-0.136;9.778;-0.043;0.0;0.0;0.0;7336;2021-01-16 16:14:32:517
-0.136;9.778;-0.043;0.0;0.0;0.0;7350;2021-01-16 16:14:32:531
-0.136;9.778;-0.043;0.0;0.0;0.0;7355;2021-01-16 16:14:32:536
-0.136;9.778;-0.043;0.0;0.0;0.0;7367;2021-01-16 16:14:32:548
-0.136;9.778;-0.043;0.0;0.0;0.0;7375;2021-01-16 16:14:32:556
-0.134;9.783;-0.048;0.0;0.0;0.0;7387;2021-01-16 16:14:32:568
-0.134;9.783;-0.048;0.0;0.0;0.0;7401;2021-01-16 16:14:32:582
-0.134;9.783;-0.048;0.0;0.0;0.0;7405;2021-01-16 16:14:32:586
-0.134;9.783;-0.048;0.0;0.0;0.0;7415;2021-01-16 16:14:32:596
-0.134;9.783;-0.048;0.0;0.0;0.0;7428;2021-01-16 16:14:32:609
-0.134;9.783;-0.048;0.0;0.0;0.0;7435;2021-01-16 16:14:32:616
-0.127;9.771;-0.053;0.0;0.0;0.0;7445;2021-01-16 16:14:32:626
-0.127;9.771;-0.053;0.0;0.0;0.0;7456;2021-01-16 16:14:32:637
-0.127;9.771;-0.053;0.0;0.0;0.0;7465;2021-01-16 16:14:32:646
-0.127;9.771;-0.053;0.0;0.0;0.0;7475;2021-01-16 16:14:32:656
-0.127;9.771;-0.053;0.0;0.0;0.0;7487;2021-01-16 16:14:32:668
-0.127;9.771;-0.053;0.0;0.0;0.0;7495;2021-01-16 16:14:32:676
-0.117;9.793;-0.038;0.0;0.0;0.0;7508;2021-01-16 16:14:32:689
-0.117;9.793;-0.038;0.0;0.0;0.0;7515;2021-01-16 16:14:32:696
-0.117;9.793;-0.038;0.0;0.0;0.0;7527;2021-01-16 16:14:32:708
-0.117;9.793;-0.038;0.0;0.0;0.0;7535;2021-01-16 16:14:32:716
-0.117;9.793;-0.038;0.0;0.0;0.0;7545;2021-01-16 16:14:32:726
-0.117;9.793;-0.038;0.0;0.001;0.0;7555;2021-01-16 16:14:32:736
-0.117;9.793;-0.038;0.0;0.001;0.0;7565;2021-01-16 16:14:32:746
-0.12;9.783;-0.043;0.0;0.001;0.0;7576;2021-01-16 16:14:32:757
-0.12;9.783;-0.043;0.0;0.001;0.0;7586;2021-01-16 16:14:32:767
-0.12;9.783;-0.043;0.0;0.001;0.0;7595;2021-01-16 16:14:32:776
-0.12;9.783;-0.043;0.0;0.001;0.0;7605;2021-01-16 16:14:32:786
-0.12;9.783;-0.043;0.0;0.001;0.0;7617;2021-01-16 16:14:32:798
-0.129;9.785;-0.045;0.0;0.001;0.0;7625;2021-01-16 16:14:32:806
-0.129;9.785;-0.045;0.0;0.001;0.0;7636;2021-01-16 16:14:32:817
-0.129;9.785;-0.045;0.0;0.001;0.0;7645;2021-01-16 16:14:32:826
-0.129;9.785;-0.045;0.0;0.001;0.0;7656;2021-01-16 16:14:32:837
-0.129;9.785;-0.045;0.0;0.0;0.0;7671;2021-01-16 16:14:32:852
-0.129;9.785;-0.045;0.0;0.0;0.0;7680;2021-01-16 16:14:32:861
-0.125;9.783;-0.036;0.0;0.0;0.0;7687;2021-01-16 16:14:32:868
-0.125;9.783;-0.036;0.0;0.0;0.0;7695;2021-01-16 16:14:32:876
-0.125;9.783;-0.036;0.0;0.0;0.0;7706;2021-01-16 16:14:32:887
-0.125;9.783;-0.036;0.0;0.0;0.0;7715;2021-01-16 16:14:32:896
-0.125;9.783;-0.036;0.0;0.0;0.0;7725;2021-01-16 16:14:32:906
-0.125;9.783;-0.036;0.0;0.0;0.0;7735;2021-01-16 16:14:32:916
-0.153;9.783;-0.036;0.0;0.0;0.0;7745;2021-01-16 16:14:32:926
-0.153;9.783;-0.036;0.0;0.0;0.0;7756;2021-01-16 16:14:32:937
-0.153;9.783;-0.036;0.0;0.0;0.0;7765;2021-01-16 16:14:32:946
-0.153;9.783;-0.036;0.0;0.0;0.0;7775;2021-01-16 16:14:32:956
-0.153;9.783;-0.036;0.0;0.0;0.0;7786;2021-01-16 16:14:32:967
-0.153;9.783;-0.036;0.0;0.0;0.0;7795;2021-01-16 16:14:32:976
-0.12;9.778;-0.041;0.0;0.0;0.0;7805;2021-01-16 16:14:32:986
-0.12;9.778;-0.041;0.0;0.0;0.0;7815;2021-01-16 16:14:32:996
-0.12;9.778;-0.041;0.0;0.0;0.0;7825;2021-01-16 16:14:33:006
-0.12;9.778;-0.041;0.0;0.0;0.0;7835;2021-01-16 16:14:33:016
-0.12;9.778;-0.041;0.0;0.0;0.0;7845;2021-01-16 16:14:33:026
-0.12;9.778;-0.041;0.0;0.0;0.0;7855;2021-01-16 16:14:33:036
-0.125;9.793;-0.036;0.0;0.0;0.0;7865;2021-01-16 16:14:33:046
-0.125;9.793;-0.036;0.0;0.0;0.0;7875;2021-01-16 16:14:33:056
-0.125;9.793;-0.036;0.0;0.0;0.0;7885;2021-01-16 16:14:33:066
-0.125;9.793;-0.036;0.0;0.0;0.0;7896;2021-01-16 16:14:33:077
-0.125;9.793;-0.036;0.0;0.0;0.0;7906;2021-01-16 16:14:33:087
-0.125;9.793;-0.036;0.0;0.0;0.0;7915;2021-01-16 16:14:33:096
-0.125;9.795;-0.038;0.0;0.0;0.0;7925;2021-01-16 16:14:33:106
-0.125;9.795;-0.038;0.0;0.0;0.0;7936;2021-01-16 16:14:33:117
-0.125;9.795;-0.038;0.0;0.0;0.0;7945;2021-01-16 16:14:33:126
-0.125;9.795;-0.038;0.0;0.0;0.0;7955;2021-01-16 16:14:33:136
-0.125;9.795;-0.038;0.0;0.0;0.0;7966;2021-01-16 16:14:33:147
-0.125;9.795;-0.038;0.0;0.0;0.0;7975;2021-01-16 16:14:33:156
-0.127;9.785;-0.041;0.0;0.0;0.0;7985;2021-01-16 16:14:33:166
-0.127;9.785;-0.041;0.0;0.0;0.0;7995;2021-01-16 16:14:33:176
-0.127;9.785;-0.041;0.0;0.0;0.0;8005;2021-01-16 16:14:33:186
-0.127;9.785;-0.041;0.0;0.0;0.0;8015;2021-01-16 16:14:33:196
-0.127;9.785;-0.041;0.0;0.0;0.0;8025;2021-01-16 16:14:33:206
-0.127;9.785;-0.041;0.0;0.0;0.0;8037;2021-01-16 16:14:33:218
-0.144;9.771;-0.024;0.0;0.0;0.0;8047;2021-01-16 16:14:33:228
-0.144;9.771;-0.024;0.0;0.0;0.0;8055;2021-01-16 16:14:33:236
-0.144;9.771;-0.024;0.0;0.0;0.0;8081;2021-01-16 16:14:33:262
-0.144;9.771;-0.024;0.0;0.0;0.0;8085;2021-01-16 16:14:33:266
-0.144;9.771;-0.024;0.0;0.0;0.0;8086;2021-01-16 16:14:33:267
-0.144;9.771;-0.024;0.0;0.0;0.0;8095;2021-01-16 16:14:33:276
-0.132;9.788;-0.029;0.0;0.0;0.0;8105;2021-01-16 16:14:33:286
-0.132;9.788;-0.029;0.0;0.0;0.0;8116;2021-01-16 16:14:33:297
-0.132;9.788;-0.029;0.0;0.0;0.0;8126;2021-01-16 16:14:33:307
-0.132;9.788;-0.029;0.0;0.0;0.0;8136;2021-01-16 16:14:33:317
-0.132;9.788;-0.029;0.0;0.0;0.0;8147;2021-01-16 16:14:33:328
-0.132;9.788;-0.029;0.0;0.0;0.0;8157;2021-01-16 16:14:33:338
-0.132;9.788;-0.029;0.0;0.0;0.0;8166;2021-01-16 16:14:33:347
-0.122;9.776;-0.034;0.0;0.0;0.0;8175;2021-01-16 16:14:33:356
-0.122;9.776;-0.034;0.0;0.0;0.0;8186;2021-01-16 16:14:33:367
-0.122;9.776;-0.034;0.0;0.0;0.0;8196;2021-01-16 16:14:33:377
-0.122;9.776;-0.034;0.0;0.0;0.0;8205;2021-01-16 16:14:33:386
-0.122;9.776;-0.034;0.0;0.0;0.0;8215;2021-01-16 16:14:33:396
-0.122;9.776;-0.034;0.0;0.0;0.0;8225;2021-01-16 16:14:33:406
-0.122;9.776;-0.034;0.0;0.0;0.0;8236;2021-01-16 16:14:33:417
-0.122;9.776;-0.034;0.0;0.0;0.0;8246;2021-01-16 16:14:33:427
-0.122;9.776;-0.034;0.0;0.0;0.0;8255;2021-01-16 16:14:33:436
-0.122;9.776;-0.034;0.0;0.0;0.0;8267;2021-01-16 16:14:33:448
-0.122;9.776;-0.034;0.0;0.0;0.0;8275;2021-01-16 16:14:33:456
-0.122;9.776;-0.034;0.0;0.0;0.0;8286;2021-01-16 16:14:33:467
-0.122;9.783;-0.045;0.0;0.0;0.0;8295;2021-01-16 16:14:33:476
-0.122;9.783;-0.045;0.0;0.0;0.0;8305;2021-01-16 16:14:33:486
-0.122;9.783;-0.045;0.0;0.0;0.0;8315;2021-01-16 16:14:33:496
-0.122;9.783;-0.045;0.0;0.0;0.0;8325;2021-01-16 16:14:33:506
-0.122;9.783;-0.045;0.0;0.0;0.0;8338;2021-01-16 16:14:33:519
-0.122;9.783;-0.045;0.0;0.0;0.0;8345;2021-01-16 16:14:33:526
-0.122;9.783;-0.045;0.0;0.0;0.0;8355;2021-01-16 16:14:33:536
-0.122;9.783;-0.045;0.0;0.0;0.0;8366;2021-01-16 16:14:33:547
-0.122;9.783;-0.045;0.0;0.0;0.0;8375;2021-01-16 16:14:33:556
-0.122;9.783;-0.045;0.0;0.0;0.0;8385;2021-01-16 16:14:33:566
-0.122;9.783;-0.045;0.0;0.0;0.0;8396;2021-01-16 16:14:33:577
-0.127;9.783;-0.055;0.0;0.0;0.0;8406;2021-01-16 16:14:33:587
-0.127;9.783;-0.055;0.0;0.0;0.0;8415;2021-01-16 16:14:33:596
-0.127;9.783;-0.055;0.0;0.0;0.0;8429;2021-01-16 16:14:33:610
-0.127;9.783;-0.055;0.0;0.0;0.0;8435;2021-01-16 16:14:33:616
-0.127;9.783;-0.055;0.0;0.0;0.0;8448;2021-01-16 16:14:33:629
-0.127;9.783;-0.055;0.0;0.0;0.0;8455;2021-01-16 16:14:33:636
-0.127;9.783;-0.055;0.0;0.0;0.0;8465;2021-01-16 16:14:33:646
-0.122;9.783;-0.045;0.0;0.0;0.0;8475;2021-01-16 16:14:33:656
-0.122;9.783;-0.045;0.0;0.0;0.0;8486;2021-01-16 16:14:33:667
-0.122;9.783;-0.045;0.0;0.0;0.0;8497;2021-01-16 16:14:33:678
-0.122;9.783;-0.045;0.0;0.0;0.0;8505;2021-01-16 16:14:33:686
-0.122;9.783;-0.045;0.0;0.0;0.0;8515;2021-01-16 16:14:33:696
-0.127;9.793;-0.041;0.0;0.0;0.0;8525;2021-01-16 16:14:33:706
-0.127;9.793;-0.041;0.0;0.0;0.0;8535;2021-01-16 16:14:33:716
-0.127;9.793;-0.041;0.0;0.0;0.0;8545;2021-01-16 16:14:33:726
-0.127;9.793;-0.041;0.0;0.0;0.0;8555;2021-01-16 16:14:33:736
-0.127;9.793;-0.041;0.0;0.0;0.0;8566;2021-01-16 16:14:33:747
-0.127;9.793;-0.041;0.0;0.0;0.0;8576;2021-01-16 16:14:33:757
-0.096;9.776;-0.038;0.0;0.0;0.0;8586;2021-01-16 16:14:33:767
-0.096;9.776;-0.038;0.0;0.0;0.0;8597;2021-01-16 16:14:33:778
-0.096;9.776;-0.038;0.0;0.0;0.0;8605;2021-01-16 16:14:33:786
-0.096;9.776;-0.038;0.0;0.0;0.0;8615;2021-01-16 16:14:33:796
-0.096;9.776;-0.038;0.0;0.0;0.0;8629;2021-01-16 16:14:33:810
-0.096;9.776;-0.038;0.0;0.0;0.0;8635;2021-01-16 16:14:33:816
-0.132;9.773;-0.029;0.0;0.0;0.0;8645;2021-01-16 16:14:33:826
-0.132;9.773;-0.029;0.0;0.0;0.0;8660;2021-01-16 16:14:33:841
-0.132;9.773;-0.029;0.0;0.0;0.0;8665;2021-01-16 16:14:33:846
-0.132;9.773;-0.029;0.0;0.0;0.0;8675;2021-01-16 16:14:33:856
-0.132;9.773;-0.029;0.0;0.0;0.0;8685;2021-01-16 16:14:33:866
-0.132;9.773;-0.029;0.0;0.0;0.0;8696;2021-01-16 16:14:33:877
-0.134;9.785;-0.012;0.0;0.0;0.0;8706;2021-01-16 16:14:33:887
-0.134;9.785;-0.012;0.0;0.0;0.0;8715;2021-01-16 16:14:33:896
-0.134;9.785;-0.012;0.0;0.0;0.0;8725;2021-01-16 16:14:33:906
-0.134;9.785;-0.012;0.0;0.0;0.0;8736;2021-01-16 16:14:33:917
-0.134;9.785;-0.012;0.0;0.0;0.0;8745;2021-01-16 16:14:33:926
-0.134;9.785;-0.012;0.0;0.0;0.0;8756;2021-01-16 16:14:33:937
-0.115;9.785;-0.055;0.0;0.0;0.0;8769;2021-01-16 16:14:33:950
-0.115;9.785;-0.055;0.0;0.0;0.0;8776;2021-01-16 16:14:33:957
-0.115;9.785;-0.055;0.0;0.0;0.0;8785;2021-01-16 16:14:33:966
-0.115;9.785;-0.055;0.0;0.0;0.0;8796;2021-01-16 16:14:33:977
-0.115;9.785;-0.055;0.0;0.0;0.0;8805;2021-01-16 16:14:33:986
-0.115;9.785;-0.055;0.0;0.0;0.0;8815;2021-01-16 16:14:33:996
-0.115;9.773;-0.034;0.0;0.0;0.0;8825;2021-01-16 16:14:34:006
-0.115;9.773;-0.034;0.0;0.0;0.0;8836;2021-01-16 16:14:34:017
-0.115;9.773;-0.034;0.0;0.0;0.0;8846;2021-01-16 16:14:34:027
-0.115;9.773;-0.034;0.0;0.0;0.0;8855;2021-01-16 16:14:34:036
-0.115;9.773;-0.034;0.0;0.0;0.0;8865;2021-01-16 16:14:34:046
-0.115;9.773;-0.034;0.0;0.0;0.0;8876;2021-01-16 16:14:34:057
-0.125;9.771;-0.041;0.0;0.0;0.0;8886;2021-01-16 16:14:34:067
-0.125;9.771;-0.041;0.0;0.0;0.0;8895;2021-01-16 16:14:34:076
-0.125;9.771;-0.041;0.0;0.0;0.0;8905;2021-01-16 16:14:34:086
-0.125;9.771;-0.041;0.0;0.0;0.0;8915;2021-01-16 16:14:34:096
-0.125;9.771;-0.041;0.0;0.0;0.0;8925;2021-01-16 16:14:34:106
-0.125;9.771;-0.041;0.0;0.0;0.0;8937;2021-01-16 16:14:34:118
-0.132;9.785;-0.045;0.0;0.0;0.0;8946;2021-01-16 16:14:34:127
-0.132;9.785;-0.045;0.0;0.0;0.0;8955;2021-01-16 16:14:34:136
-0.132;9.785;-0.045;0.0;0.0;0.0;8966;2021-01-16 16:14:34:147
-0.132;9.785;-0.045;0.0;0.0;0.0;8975;2021-01-16 16:14:34:156
-0.132;9.785;-0.045;0.0;0.0;0.0;8985;2021-01-16 16:14:34:166
-0.132;9.785;-0.045;0.0;0.0;0.0;8995;2021-01-16 16:14:34:176
-0.108;9.797;-0.034;0.0;0.0;0.0;9007;2021-01-16 16:14:34:188
-0.108;9.797;-0.034;0.0;0.0;0.0;9035;2021-01-16 16:14:34:216
-0.108;9.797;-0.034;0.0;0.0;0.0;9035;2021-01-16 16:14:34:216
-0.108;9.797;-0.034;0.0;0.0;0.0;9035;2021-01-16 16:14:34:216
-0.108;9.797;-0.034;0.0;0.0;0.0;9046;2021-01-16 16:14:34:227
-0.108;9.797;-0.034;0.0;0.0;0.0;9056;2021-01-16 16:14:34:237
-0.136;9.788;-0.055;0.0;0.0;0.0;9065;2021-01-16 16:14:34:246
-0.136;9.788;-0.055;0.0;0.0;0.0;9089;2021-01-16 16:14:34:270
-0.136;9.788;-0.055;0.0;0.0;0.0;9089;2021-01-16 16:14:34:270
-0.136;9.788;-0.055;0.0;0.0;0.0;9098;2021-01-16 16:14:34:279
-0.136;9.788;-0.055;0.0;0.0;0.0;9105;2021-01-16 16:14:34:286
-0.136;9.788;-0.055;0.0;0.0;0.0;9115;2021-01-16 16:14:34:296
-0.125;9.781;-0.026;0.0;0.0;0.0;9125;2021-01-16 16:14:34:306
-0.125;9.781;-0.026;0.0;0.0;0.0;9136;2021-01-16 16:14:34:317
-0.125;9.781;-0.026;0.0;0.0;0.0;9146;2021-01-16 16:14:34:327
-0.125;9.781;-0.026;0.0;0.0;0.0;9155;2021-01-16 16:14:34:336
-0.125;9.781;-0.026;0.0;0.0;0.0;9168;2021-01-16 16:14:34:349
-0.125;9.781;-0.026;0.0;0.0;0.0;9175;2021-01-16 16:14:34:356
-0.12;9.781;-0.05;0.0;0.0;0.0;9185;2021-01-16 16:14:34:366
-0.12;9.781;-0.05;0.0;0.0;0.0;9195;2021-01-16 16:14:34:376
-0.12;9.781;-0.05;0.0;0.0;0.0;9206;2021-01-16 16:14:34:387
-0.12;9.781;-0.05;0.0;0.0;0.0;9216;2021-01-16 16:14:34:397
-0.12;9.781;-0.05;0.0;0.0;0.0;9225;2021-01-16 16:14:34:406
-0.12;9.781;-0.05;0.0;0.0;0.0;9235;2021-01-16 16:14:34:416
-0.125;9.785;-0.05;0.0;0.0;0.0;9245;2021-01-16 16:14:34:426
-0.125;9.785;-0.05;0.0;0.0;0.0;9255;2021-01-16 16:14:34:436
-0.125;9.785;-0.05;0.0;0.0;0.0;9266;2021-01-16 16:14:34:447
-0.125;9.785;-0.05;0.0;0.0;0.0;9276;2021-01-16 16:14:34:457
-0.125;9.785;-0.05;0.0;0.0;0.0;9287;2021-01-16 16:14:34:468
-0.125;9.785;-0.05;0.0;0.0;0.0;9295;2021-01-16 16:14:34:476
-0.125;9.778;-0.045;0.0;0.0;0.0;9306;2021-01-16 16:14:34:487
-0.125;9.778;-0.045;0.0;0.0;0.0;9315;2021-01-16 16:14:34:496
-0.125;9.778;-0.045;0.0;0.0;0.0;9325;2021-01-16 16:14:34:506
-0.125;9.778;-0.045;0.0;0.0;0.0;9338;2021-01-16 16:14:34:519
-0.125;9.778;-0.045;0.0;0.0;0.0;9345;2021-01-16 16:14:34:526
-0.125;9.778;-0.045;0.0;0.0;0.0;9355;2021-01-16 16:14:34:536
-0.11;9.785;-0.036;0.0;0.0;0.0;9365;2021-01-16 16:14:34:546
-0.11;9.785;-0.036;0.0;0.0;0.0;9375;2021-01-16 16:14:34:556
-0.11;9.785;-0.036;0.0;0.0;0.0;9390;2021-01-16 16:14:34:571
-0.11;9.785;-0.036;0.0;0.0;0.0;9395;2021-01-16 16:14:34:576
-0.11;9.785;-0.036;0.0;0.0;0.0;9405;2021-01-16 16:14:34:586
-0.11;9.785;-0.036;0.0;0.0;0.0;9415;2021-01-16 16:14:34:596
-0.132;9.781;-0.045;0.0;0.0;0.0;9426;2021-01-16 16:14:34:607
-0.132;9.781;-0.045;0.0;0.0;0.0;9436;2021-01-16 16:14:34:617
-0.132;9.781;-0.045;0.0;0.0;0.0;9446;2021-01-16 16:14:34:627
-0.132;9.781;-0.045;0.0;0.0;0.0;9455;2021-01-16 16:14:34:636
-0.132;9.781;-0.045;0.0;0.0;0.0;9465;2021-01-16 16:14:34:646
-0.132;9.781;-0.045;0.0;0.0;0.0;9475;2021-01-16 16:14:34:656
-0.117;9.793;-0.024;0.0;0.0;0.0;9494;2021-01-16 16:14:34:675
-0.117;9.793;-0.024;0.0;0.0;0.0;9495;2021-01-16 16:14:34:676
-0.117;9.793;-0.024;0.0;0.0;0.0;9506;2021-01-16 16:14:34:687
-0.117;9.793;-0.024;0.0;0.0;0.0;9515;2021-01-16 16:14:34:696
-0.117;9.793;-0.024;0.0;0.0;0.0;9525;2021-01-16 16:14:34:706
-0.117;9.793;-0.024;0.0;0.0;0.0;9535;2021-01-16 16:14:34:716
-0.132;9.783;-0.048;0.0;0.0;0.0;9545;2021-01-16 16:14:34:726
-0.132;9.783;-0.048;0.0;0.0;0.0;9555;2021-01-16 16:14:34:736
-0.132;9.783;-0.048;0.0;0.0;0.0;9567;2021-01-16 16:14:34:748
-0.132;9.783;-0.048;0.0;0.0;0.0;9579;2021-01-16 16:14:34:760
-0.132;9.783;-0.048;0.0;0.0;0.0;9585;2021-01-16 16:14:34:766
-0.132;9.783;-0.048;0.0;0.0;0.0;9595;2021-01-16 16:14:34:776
-0.125;9.783;-0.038;0.0;0.0;0.0;9609;2021-01-16 16:14:34:790
-0.125;9.783;-0.038;0.0;0.0;0.0;9616;2021-01-16 16:14:34:797
-0.125;9.783;-0.038;0.0;0.0;0.0;9626;2021-01-16 16:14:34:807
-0.125;9.783;-0.038;0.0;0.0;0.0;9635;2021-01-16 16:14:34:816
-0.125;9.783;-0.038;0.0;0.0;0.0;9646;2021-01-16 16:14:34:827
-0.125;9.783;-0.038;0.0;0.0;0.0;9656;2021-01-16 16:14:34:837
-0.122;9.785;-0.041;0.0;0.0;0.0;9666;2021-01-16 16:14:34:847
-0.122;9.785;-0.041;0.0;0.0;0.0;9675;2021-01-16 16:14:34:856
-0.122;9.785;-0.041;0.0;0.0;0.0;9687;2021-01-16 16:14:34:868
-0.122;9.785;-0.041;0.0;0.0;0.0;9696;2021-01-16 16:14:34:877
-0.122;9.785;-0.041;0.0;0.0;0.0;9705;2021-01-16 16:14:34:886
-0.122;9.785;-0.041;0.0;0.0;0.0;9715;2021-01-16 16:14:34:896
-0.125;9.781;-0.038;0.0;0.0;0.0;9725;2021-01-16 16:14:34:906
-0.125;9.781;-0.038;0.0;0.0;0.0;9735;2021-01-16 16:14:34:916
-0.125;9.781;-0.038;0.0;0.0;0.0;9745;2021-01-16 16:14:34:926
-0.125;9.781;-0.038;0.0;0.0;0.0;9755;2021-01-16 16:14:34:936
-0.125;9.781;-0.038;0.0;0.0;0.0;9767;2021-01-16 16:14:34:948
-0.125;9.781;-0.038;0.0;0.0;0.0;9775;2021-01-16 16:14:34:956
-0.139;9.8;-0.055;0.0;0.0;0.0;9787;2021-01-16 16:14:34:968
-0.139;9.8;-0.055;0.0;0.0;0.0;9796;2021-01-16 16:14:34:977
-0.139;9.8;-0.055;0.0;0.0;0.0;9805;2021-01-16 16:14:34:986
-0.139;9.8;-0.055;0.0;0.0;0.0;9817;2021-01-16 16:14:34:998
-0.139;9.8;-0.055;0.0;0.0;0.0;9825;2021-01-16 16:14:35:006
-0.139;9.8;-0.055;0.0;0.0;0.0;9835;2021-01-16 16:14:35:016
-0.151;9.785;-0.026;0.0;0.0;0.0;9845;2021-01-16 16:14:35:026
-0.151;9.785;-0.026;0.0;0.0;0.0;9856;2021-01-16 16:14:35:037
-0.151;9.785;-0.026;0.0;0.0;0.0;9866;2021-01-16 16:14:35:047
-0.151;9.785;-0.026;0.0;0.0;0.0;9876;2021-01-16 16:14:35:057
-0.151;9.785;-0.026;0.0;0.0;0.0;9885;2021-01-16 16:14:35:066
-0.151;9.785;-0.026;0.0;0.0;0.0;9896;2021-01-16 16:14:35:077
-0.134;9.783;-0.019;0.0;0.0;0.0;9905;2021-01-16 16:14:35:086
-0.134;9.783;-0.019;0.0;0.0;0.0;9916;2021-01-16 16:14:35:097
-0.134;9.783;-0.019;0.0;0.0;0.0;9927;2021-01-16 16:14:35:108
-0.134;9.783;-0.019;0.0;0.0;0.0;9936;2021-01-16 16:14:35:117
-0.134;9.783;-0.019;0.0;0.0;0.0;9945;2021-01-16 16:14:35:126
-0.134;9.783;-0.019;0.0;0.0;0.0;9955;2021-01-16 16:14:35:136
-0.136;9.781;-0.012;0.0;0.0;0.0;9966;2021-01-16 16:14:35:147
-0.136;9.781;-0.012;0.0;0.0;0.0;9975;2021-01-16 16:14:35:156
-0.136;9.781;-0.012;0.0;0.0;0.0;9985;2021-01-16 16:14:35:166
-0.136;9.781;-0.012;0.0;0.0;0.0;9996;2021-01-16 16:14:35:177
-0.136;9.781;-0.012;0.0;0.0;0.0;10005;2021-01-16 16:14:35:186
-0.136;9.781;-0.012;0.0;0.0;0.0;10015;2021-01-16 16:14:35:196
-0.117;9.8;-0.053;0.0;0.0;0.0;10025;2021-01-16 16:14:35:206
-0.117;9.8;-0.053;0.0;0.0;0.0;10035;2021-01-16 16:14:35:216
-0.117;9.8;-0.053;0.0;0.0;0.0;10046;2021-01-16 16:14:35:227
-0.117;9.8;-0.053;0.0;0.0;0.0;10055;2021-01-16 16:14:35:236
-0.117;9.8;-0.053;0.0;0.0;0.0;10065;2021-01-16 16:14:35:246
-0.117;9.8;-0.053;0.0;0.0;0.0;10075;2021-01-16 16:14:35:256
-0.117;9.8;-0.053;0.0;0.0;0.0;10085;2021-01-16 16:14:35:266
-0.127;9.79;-0.036;0.0;0.0;0.0;10096;2021-01-16 16:14:35:277
-0.127;9.79;-0.036;0.0;0.0;0.0;10105;2021-01-16 16:14:35:286
-0.127;9.79;-0.036;0.0;0.0;0.0;10116;2021-01-16 16:14:35:297
-0.127;9.79;-0.036;0.0;0.0;0.0;10125;2021-01-16 16:14:35:306
-0.127;9.79;-0.036;0.0;0.0;0.0;10135;2021-01-16 16:14:35:316
-0.136;9.778;-0.005;0.0;0.0;0.0;10145;2021-01-16 16:14:35:326
-0.136;9.778;-0.005;0.0;0.0;0.0;10155;2021-01-16 16:14:35:336
-0.136;9.778;-0.005;0.0;0.0;0.0;10165;2021-01-16 16:14:35:346
-0.136;9.778;-0.005;0.0;0.0;0.0;10175;2021-01-16 16:14:35:356
-0.136;9.778;-0.005;0.0;0.0;0.0;10185;2021-01-16 16:14:35:366
-0.136;9.778;-0.005;0.0;0.0;0.0;10195;2021-01-16 16:14:35:376
-0.136;9.773;-0.034;0.0;0.0;0.0;10208;2021-01-16 16:14:35:389
-0.136;9.773;-0.034;0.0;0.0;0.0;10215;2021-01-16 16:14:35:396
-0.136;9.773;-0.034;0.0;0.0;0.0;10226;2021-01-16 16:14:35:407
-0.136;9.773;-0.034;0.0;0.0;0.0;10235;2021-01-16 16:14:35:416
-0.136;9.773;-0.034;0.0;0.0;0.0;10245;2021-01-16 16:14:35:426
-0.136;9.773;-0.034;0.0;0.0;0.0;10255;2021-01-16 16:14:35:436
-0.11;9.783;-0.043;0.0;0.0;0.0;10266;2021-01-16 16:14:35:447
-0.11;9.783;-0.043;0.0;0.0;0.0;10276;2021-01-16 16:14:35:457
-0.11;9.783;-0.043;0.0;0.0;0.0;10298;2021-01-16 16:14:35:479
-0.11;9.783;-0.043;0.0;0.0;0.0;10299;2021-01-16 16:14:35:480
-0.11;9.783;-0.043;0.0;0.0;0.0;10306;2021-01-16 16:14:35:487
-0.11;9.783;-0.043;0.0;0.0;0.0;10315;2021-01-16 16:14:35:496
-0.129;9.761;-0.024;0.0;0.0;0.0;10325;2021-01-16 16:14:35:506
-0.129;9.761;-0.024;0.0;0.0;0.0;10335;2021-01-16 16:14:35:516
-0.129;9.761;-0.024;0.0;0.0;0.0;10345;2021-01-16 16:14:35:526
-0.129;9.761;-0.024;0.0;0.0;0.0;10356;2021-01-16 16:14:35:537
-0.129;9.761;-0.024;0.0;0.0;0.0;10365;2021-01-16 16:14:35:546
-0.129;9.761;-0.024;0.0;0.0;0.0;10375;2021-01-16 16:14:35:556
-0.113;9.79;-0.034;0.0;0.0;0.0;10386;2021-01-16 16:14:35:567
-0.113;9.79;-0.034;0.0;0.0;0.0;10395;2021-01-16 16:14:35:576
-0.113;9.79;-0.034;0.0;0.0;0.0;10405;2021-01-16 16:14:35:586
-0.113;9.79;-0.034;0.0;0.0;0.0;10415;2021-01-16 16:14:35:596
-0.113;9.79;-0.034;0.0;0.0;0.0;10426;2021-01-16 16:14:35:607
-0.113;9.79;-0.034;0.0;0.0;0.0;10435;2021-01-16 16:14:35:616
-0.113;9.781;-0.017;0.0;0.0;0.0;10445;2021-01-16 16:14:35:626
-0.113;9.781;-0.017;0.0;0.0;0.0;10456;2021-01-16 16:14:35:637
-0.113;9.781;-0.017;0.0;0.0;0.0;10466;2021-01-16 16:14:35:647
-0.113;9.781;-0.017;0.0;0.0;0.0;10475;2021-01-16 16:14:35:656
-0.113;9.781;-0.017;0.0;0.0;0.0;10486;2021-01-16 16:14:35:667
-0.113;9.781;-0.017;0.0;0.0;0.0;10495;2021-01-16 16:14:35:676
-0.129;9.785;-0.036;0.0;0.0;0.0;10505;2021-01-16 16:14:35:686
-0.129;9.785;-0.036;0.0;0.0;0.0;10516;2021-01-16 16:14:35:697
-0.129;9.785;-0.036;0.0;0.0;0.0;10525;2021-01-16 16:14:35:706
-0.129;9.785;-0.036;0.0;0.0;0.0;10535;2021-01-16 16:14:35:716
-0.129;9.785;-0.036;0.0;0.0;0.0;10546;2021-01-16 16:14:35:727
-0.129;9.785;-0.036;0.0;0.0;0.0;10556;2021-01-16 16:14:35:737
-0.125;9.795;-0.053;0.0;0.0;0.0;10566;2021-01-16 16:14:35:747
-0.125;9.795;-0.053;0.0;0.0;0.0;10575;2021-01-16 16:14:35:756
-0.125;9.795;-0.053;0.0;0.0;0.0;10585;2021-01-16 16:14:35:766
-0.125;9.795;-0.053;0.0;0.0;0.0;10595;2021-01-16 16:14:35:776
-0.125;9.795;-0.053;0.0;0.0;0.0;10612;2021-01-16 16:14:35:793
-0.125;9.795;-0.053;0.0;0.0;0.0;10615;2021-01-16 16:14:35:796
-0.132;9.785;-0.041;0.0;0.0;0.0;10630;2021-01-16 16:14:35:811
-0.132;9.785;-0.041;0.0;0.0;0.0;10636;2021-01-16 16:14:35:817
-0.132;9.785;-0.041;0.0;0.0;0.0;10648;2021-01-16 16:14:35:829
-0.132;9.785;-0.041;0.0;0.0;0.0;10656;2021-01-16 16:14:35:837
-0.132;9.785;-0.041;0.0;0.0;0.0;10665;2021-01-16 16:14:35:846
-0.132;9.785;-0.041;0.0;0.0;0.0;10675;2021-01-16 16:14:35:856
-0.132;9.781;-0.038;0.0;0.0;0.0;10687;2021-01-16 16:14:35:868
-0.132;9.781;-0.038;0.0;0.0;0.0;10695;2021-01-16 16:14:35:876
-0.132;9.781;-0.038;0.0;0.0;0.0;10705;2021-01-16 16:14:35:886
-0.132;9.781;-0.038;0.0;0.0;0.0;10716;2021-01-16 16:14:35:897
-0.132;9.781;-0.038;0.0;0.0;0.0;10725;2021-01-16 16:14:35:906
-0.132;9.781;-0.038;0.0;0.0;0.0;10735;2021-01-16 16:14:35:916
-0.127;9.785;-0.029;0.0;0.0;0.0;10745;2021-01-16 16:14:35:926
-0.127;9.785;-0.029;0.0;0.0;0.0;10755;2021-01-16 16:14:35:936
-0.127;9.785;-0.029;0.0;0.0;0.0;10766;2021-01-16 16:14:35:947
-0.127;9.785;-0.029;0.0;0.0;0.0;10775;2021-01-16 16:14:35:956
-0.127;9.785;-0.029;0.0;0.0;0.0;10785;2021-01-16 16:14:35:966
-0.127;9.785;-0.029;0.0;0.0;0.0;10803;2021-01-16 16:14:35:984
-0.127;9.79;-0.048;0.0;0.0;0.0;10806;2021-01-16 16:14:35:987
-0.127;9.79;-0.048;0.0;0.0;0.0;10815;2021-01-16 16:14:35:996
-0.127;9.79;-0.048;0.0;0.0;0.0;10826;2021-01-16 16:14:36:007
-0.127;9.79;-0.048;0.0;0.0;0.0;10835;2021-01-16 16:14:36:016
-0.127;9.79;-0.048;0.0;0.0;0.0;10846;2021-01-16 16:14:36:027
-0.127;9.79;-0.048;0.0;0.0;0.0;10855;2021-01-16 16:14:36:036
-0.12;9.785;-0.019;0.0;0.0;0.0;10867;2021-01-16 16:14:36:048
-0.12;9.785;-0.019;0.0;0.0;0.0;10875;2021-01-16 16:14:36:056
-0.12;9.785;-0.019;0.0;0.0;0.0;10885;2021-01-16 16:14:36:066
-0.12;9.785;-0.019;0.0;0.0;0.0;10895;2021-01-16 16:14:36:076
-0.12;9.785;-0.019;0.0;0.0;0.0;10905;2021-01-16 16:14:36:086
-0.12;9.785;-0.019;0.0;0.0;0.0;10915;2021-01-16 16:14:36:096
-0.141;9.773;-0.048;0.0;0.0;0.0;10927;2021-01-16 16:14:36:108
-0.141;9.773;-0.048;0.0;0.0;0.0;10938;2021-01-16 16:14:36:119
-0.141;9.773;-0.048;0.0;0.0;0.0;10945;2021-01-16 16:14:36:126
-0.141;9.773;-0.048;0.0;0.0;0.0;10955;2021-01-16 16:14:36:136
-0.141;9.773;-0.048;0.0;0.0;0.0;10965;2021-01-16 16:14:36:146
-0.141;9.773;-0.048;0.0;0.0;0.0;10975;2021-01-16 16:14:36:156
-0.129;9.776;-0.043;0.0;0.0;0.0;10986;2021-01-16 16:14:36:167
-0.129;9.776;-0.043;0.0;0.0;0.0;10996;2021-01-16 16:14:36:177
-0.129;9.776;-0.043;0.0;0.0;0.0;11006;2021-01-16 16:14:36:187
-0.129;9.776;-0.043;0.0;0.0;0.0;11015;2021-01-16 16:14:36:196
-0.129;9.776;-0.043;0.0;0.0;0.0;11026;2021-01-16 16:14:36:207
-0.129;9.776;-0.043;0.0;0.0;0.0;11035;2021-01-16 16:14:36:216
-0.125;9.776;-0.048;0.0;0.0;0.0;11045;2021-01-16 16:14:36:226
-0.125;9.776;-0.048;0.0;0.0;0.0;11055;2021-01-16 16:14:36:236
-0.125;9.776;-0.048;0.0;0.0;0.0;11065;2021-01-16 16:14:36:246
-0.125;9.776;-0.048;0.0;0.0;0.0;11075;2021-01-16 16:14:36:256
-0.125;9.776;-0.048;0.0;0.0;0.0;11086;2021-01-16 16:14:36:267
-0.125;9.776;-0.048;0.0;0.0;0.0;11095;2021-01-16 16:14:36:276
-0.122;9.781;-0.034;0.0;0.0;0.0;11106;2021-01-16 16:14:36:287
-0.122;9.781;-0.034;0.0;0.0;0.0;11115;2021-01-16 16:14:36:296
-0.122;9.781;-0.034;0.0;0.0;0.0;11125;2021-01-16 16:14:36:306
-0.122;9.781;-0.034;0.0;0.0;0.0;11135;2021-01-16 16:14:36:316
-0.122;9.781;-0.034;0.0;0.0;0.0;11145;2021-01-16 16:14:36:326
-0.122;9.781;-0.034;0.0;0.0;0.0;11156;2021-01-16 16:14:36:337
-0.127;9.795;-0.041;0.0;0.0;0.0;11165;2021-01-16 16:14:36:346
-0.127;9.795;-0.041;0.0;0.0;0.0;11175;2021-01-16 16:14:36:356
-0.127;9.795;-0.041;0.0;0.0;0.0;11186;2021-01-16 16:14:36:367
-0.127;9.795;-0.041;0.0;0.0;0.0;11195;2021-01-16 16:14:36:376
-0.127;9.795;-0.041;0.0;0.0;0.0;11207;2021-01-16 16:14:36:388
-0.127;9.795;-0.041;0.0;0.0;0.0;11215;2021-01-16 16:14:36:396
-0.139;9.795;-0.041;0.0;0.0;0.0;11225;2021-01-16 16:14:36:406
-0.139;9.795;-0.041;0.0;0.0;0.0;11235;2021-01-16 16:14:36:416
-0.139;9.795;-0.041;0.0;0.0;0.0;11249;2021-01-16 16:14:36:430
-0.139;9.795;-0.041;0.0;0.0;0.0;11256;2021-01-16 16:14:36:437
-0.139;9.795;-0.041;0.0;0.0;0.0;11265;2021-01-16 16:14:36:446
-0.139;9.795;-0.041;0.0;0.0;0.0;11275;2021-01-16 16:14:36:456
-0.134;9.788;-0.034;0.0;0.0;0.0;11285;2021-01-16 16:14:36:466
-0.134;9.788;-0.034;0.0;0.0;0.0;11295;2021-01-16 16:14:36:476
-0.134;9.788;-0.034;0.0;0.0;0.0;11305;2021-01-16 16:14:36:486
-0.134;9.788;-0.034;0.0;0.0;0.0;11315;2021-01-16 16:14:36:496
-0.134;9.788;-0.034;0.0;0.0;0.0;11325;2021-01-16 16:14:36:506
-0.134;9.788;-0.034;0.0;0.0;0.0;11335;2021-01-16 16:14:36:516
-0.12;9.783;-0.029;0.0;0.0;0.0;11345;2021-01-16 16:14:36:526
-0.12;9.783;-0.029;0.0;0.0;0.0;11355;2021-01-16 16:14:36:536
-0.12;9.783;-0.029;0.0;0.0;0.0;11365;2021-01-16 16:14:36:546
-0.12;9.783;-0.029;0.0;0.0;0.0;11375;2021-01-16 16:14:36:556
-0.12;9.783;-0.029;0.0;0.0;0.0;11386;2021-01-16 16:14:36:567
-0.12;9.783;-0.029;0.0;0.0;0.0;11395;2021-01-16 16:14:36:576
-0.12;9.783;-0.048;0.0;0.0;0.0;11405;2021-01-16 16:14:36:586
-0.12;9.783;-0.048;0.0;0.0;0.0;11415;2021-01-16 16:14:36:596
-0.12;9.783;-0.048;0.0;0.0;0.0;11425;2021-01-16 16:14:36:606
-0.12;9.783;-0.048;0.0;0.0;0.0;11435;2021-01-16 16:14:36:616
-0.12;9.783;-0.048;0.0;0.0;0.0;11446;2021-01-16 16:14:36:627
-0.12;9.783;-0.048;0.0;0.0;0.0;11455;2021-01-16 16:14:36:636
-0.148;9.785;-0.031;0.0;0.0;0.0;11465;2021-01-16 16:14:36:646
-0.148;9.785;-0.031;0.0;0.0;0.0;11476;2021-01-16 16:14:36:657
-0.148;9.785;-0.031;0.0;0.0;0.0;11485;2021-01-16 16:14:36:666
-0.148;9.785;-0.031;0.0;0.0;0.0;11495;2021-01-16 16:14:36:676
-0.148;9.785;-0.031;0.0;0.0;0.0;11505;2021-01-16 16:14:36:686
-0.148;9.785;-0.031;0.0;0.0;0.0;11515;2021-01-16 16:14:36:696
-0.127;9.805;-0.043;0.0;0.0;0.0;11527;2021-01-16 16:14:36:708
-0.127;9.805;-0.043;0.0;0.0;0.0;11535;2021-01-16 16:14:36:716
-0.127;9.805;-0.043;0.0;0.0;0.0;11545;2021-01-16 16:14:36:726
-0.127;9.805;-0.043;0.0;0.0;0.0;11555;2021-01-16 16:14:36:736
-0.127;9.805;-0.043;0.0;0.0;0.0;11565;2021-01-16 16:14:36:746
-0.127;9.805;-0.043;0.0;0.0;0.0;11576;2021-01-16 16:14:36:757
-0.127;9.778;-0.043;0.0;0.0;0.0;11585;2021-01-16 16:14:36:766
-0.127;9.778;-0.043;0.0;0.0;0.0;11595;2021-01-16 16:14:36:776
-0.127;9.778;-0.043;0.0;0.0;0.0;11605;2021-01-16 16:14:36:786
-0.127;9.778;-0.043;0.0;0.0;0.0;11615;2021-01-16 16:14:36:796
-0.127;9.778;-0.043;0.0;0.0;0.0;11630;2021-01-16 16:14:36:811
-0.127;9.778;-0.043;0.0;0.0;0.0;11635;2021-01-16 16:14:36:816
-0.127;9.795;-0.043;0.0;0.0;0.0;11645;2021-01-16 16:14:36:826
-0.115;9.795;-0.043;0.0;0.0;0.0;11655;2021-01-16 16:14:36:836
-0.115;9.795;-0.043;0.0;0.0;0.0;11666;2021-01-16 16:14:36:847
-0.115;9.795;-0.043;0.0;0.0;0.0;11675;2021-01-16 16:14:36:856
-0.115;9.795;-0.043;0.0;0.0;0.0;11685;2021-01-16 16:14:36:866
-0.115;9.795;-0.043;0.0;0.0;0.0;11695;2021-01-16 16:14:36:876
-0.144;9.776;-0.048;0.0;0.0;0.0;11705;2021-01-16 16:14:36:886
-0.144;9.776;-0.048;0.0;0.0;0.0;11715;2021-01-16 16:14:36:896
-0.144;9.776;-0.048;0.0;0.0;0.0;11726;2021-01-16 16:14:36:907
-0.144;9.776;-0.048;0.0;0.0;0.0;11735;2021-01-16 16:14:36:916
-0.144;9.776;-0.048;0.0;0.0;0.0;11745;2021-01-16 16:14:36:926
-0.144;9.776;-0.048;0.0;0.0;0.0;11758;2021-01-16 16:14:36:939
-0.132;9.797;-0.029;0.0;0.0;0.0;11765;2021-01-16 16:14:36:946
-0.132;9.797;-0.029;0.0;0.0;0.0;11775;2021-01-16 16:14:36:956
-0.132;9.797;-0.029;0.0;0.0;0.0;11785;2021-01-16 16:14:36:966
-0.132;9.797;-0.029;0.0;0.0;0.0;11795;2021-01-16 16:14:36:976
-0.132;9.797;-0.029;0.0;0.0;0.0;11805;2021-01-16 16:14:36:986
-0.132;9.797;-0.029;0.0;0.0;0.0;11815;2021-01-16 16:14:36:996
-0.122;9.773;-0.05;0.0;0.0;0.0;11826;2021-01-16 16:14:37:007
-0.122;9.773;-0.05;0.0;0.0;0.0;11835;2021-01-16 16:14:37:016
-0.122;9.773;-0.05;0.0;0.0;0.0;11845;2021-01-16 16:14:37:026
-0.122;9.773;-0.05;0.0;0.0;0.0;11855;2021-01-16 16:14:37:036
-0.122;9.773;-0.05;0.0;0.0;0.0;11867;2021-01-16 16:14:37:048
-0.122;9.773;-0.05;0.0;0.0;0.0;11875;2021-01-16 16:14:37:056
-0.122;9.773;-0.05;0.0;0.0;0.0;11885;2021-01-16 16:14:37:066
-0.122;9.783;-0.036;0.0;0.0;0.0;11895;2021-01-16 16:14:37:076
-0.122;9.783;-0.036;0.0;0.0;0.0;11906;2021-01-16 16:14:37:087
-0.122;9.783;-0.036;0.0;0.0;0.0;11915;2021-01-16 16:14:37:096
-0.122;9.783;-0.036;0.0;0.0;0.0;11925;2021-01-16 16:14:37:106
-0.122;9.783;-0.036;0.0;0.0;0.0;11935;2021-01-16 16:14:37:116
-0.122;9.783;-0.036;0.0;0.0;0.0;11945;2021-01-16 16:14:37:126
-0.122;9.783;-0.036;0.0;0.0;0.0;11956;2021-01-16 16:14:37:137
-0.122;9.783;-0.036;0.0;0.0;0.0;11965;2021-01-16 16:14:37:146
-0.122;9.783;-0.036;0.0;0.0;0.0;11976;2021-01-16 16:14:37:157
-0.122;9.783;-0.036;0.0;0.0;0.0;11985;2021-01-16 16:14:37:166
-0.122;9.783;-0.036;0.0;0.0;0.0;11995;2021-01-16 16:14:37:176
-0.122;9.783;-0.036;0.0;0.0;0.0;12005;2021-01-16 16:14:37:186
-0.136;9.797;-0.031;0.0;0.0;0.0;12015;2021-01-16 16:14:37:196
-0.136;9.797;-0.031;0.0;0.0;0.0;12025;2021-01-16 16:14:37:206
-0.136;9.797;-0.031;0.0;0.0;0.0;12035;2021-01-16 16:14:37:216
-0.136;9.797;-0.031;0.0;0.0;0.0;12045;2021-01-16 16:14:37:226
-0.136;9.797;-0.031;0.0;0.0;0.0;12055;2021-01-16 16:14:37:236
-0.125;9.778;-0.038;0.0;0.0;0.0;12065;2021-01-16 16:14:37:246
-0.125;9.778;-0.038;0.0;0.0;0.0;12075;2021-01-16 16:14:37:256
-0.125;9.778;-0.038;0.0;0.0;0.0;12087;2021-01-16 16:14:37:268
-0.125;9.778;-0.038;0.0;0.0;0.0;12096;2021-01-16 16:14:37:277
-0.125;9.778;-0.038;0.0;0.0;0.0;12106;2021-01-16 16:14:37:287
-0.125;9.778;-0.038;0.0;0.0;0.0;12116;2021-01-16 16:14:37:297
-0.125;9.781;-0.048;0.0;0.0;0.0;12125;2021-01-16 16:14:37:306
-0.125;9.781;-0.048;0.0;0.0;0.0;12142;2021-01-16 16:14:37:323
-0.125;9.781;-0.048;0.0;0.0;0.0;12148;2021-01-16 16:14:37:329
-0.125;9.781;-0.048;0.0;0.0;0.0;12157;2021-01-16 16:14:37:338
-0.125;9.781;-0.048;0.0;0.0;0.0;12165;2021-01-16 16:14:37:346
-0.125;9.781;-0.048;0.0;0.0;0.0;12175;2021-01-16 16:14:37:356
-0.139;9.769;-0.031;0.0;0.0;0.0;12185;2021-01-16 16:14:37:366
-0.139;9.769;-0.031;0.0;0.0;0.0;12195;2021-01-16 16:14:37:376
-0.139;9.769;-0.031;0.0;0.0;0.0;12205;2021-01-16 16:14:37:386
-0.139;9.769;-0.031;0.0;0.0;0.0;12215;2021-01-16 16:14:37:396
-0.139;9.769;-0.031;0.0;0.0;0.0;12225;2021-01-16 16:14:37:406
-0.139;9.769;-0.031;0.0;0.0;0.0;12236;2021-01-16 16:14:37:417
-0.139;9.79;-0.036;0.0;0.0;0.0;12245;2021-01-16 16:14:37:426
-0.139;9.79;-0.036;0.0;0.0;0.0;12259;2021-01-16 16:14:37:440
-0.139;9.79;-0.036;0.0;0.0;0.0;12266;2021-01-16 16:14:37:447
-0.139;9.79;-0.036;0.0;0.0;0.0;12275;2021-01-16 16:14:37:456
-0.139;9.79;-0.036;0.0;0.0;0.0;12285;2021-01-16 16:14:37:466
-0.139;9.79;-0.036;0.0;0.0;0.0;12296;2021-01-16 16:14:37:477
-0.132;9.785;-0.041;0.0;0.0;0.0;12305;2021-01-16 16:14:37:486
-0.132;9.785;-0.041;0.0;0.0;0.0;12316;2021-01-16 16:14:37:497
-0.132;9.785;-0.041;0.0;0.0;0.0;12325;2021-01-16 16:14:37:506
-0.132;9.785;-0.041;0.0;0.0;0.0;12339;2021-01-16 16:14:37:520
-0.132;9.785;-0.041;0.0;0.0;0.0;12345;2021-01-16 16:14:37:526
-0.132;9.785;-0.041;0.0;0.0;0.0;12355;2021-01-16 16:14:37:536
-0.127;9.776;-0.041;0.0;0.0;0.0;12365;2021-01-16 16:14:37:546
-0.127;9.776;-0.041;0.0;0.0;0.0;12376;2021-01-16 16:14:37:557
-0.127;9.776;-0.041;0.0;0.0;0.0;12385;2021-01-16 16:14:37:566
-0.127;9.776;-0.041;0.0;0.0;0.0;12395;2021-01-16 16:14:37:576
-0.127;9.776;-0.041;0.0;0.0;0.0;12406;2021-01-16 16:14:37:587
-0.127;9.776;-0.041;0.0;0.0;0.0;12415;2021-01-16 16:14:37:596
-0.122;9.793;-0.026;0.0;0.0;0.0;12425;2021-01-16 16:14:37:606
-0.122;9.793;-0.026;0.0;0.0;0.0;12435;2021-01-16 16:14:37:616
-0.122;9.793;-0.026;0.0;0.0;0.0;12445;2021-01-16 16:14:37:626
-0.122;9.793;-0.026;0.0;0.0;0.0;12456;2021-01-16 16:14:37:637
-0.122;9.793;-0.026;0.0;0.0;0.0;12465;2021-01-16 16:14:37:646
-0.122;9.793;-0.026;0.0;0.0;0.0;12475;2021-01-16 16:14:37:656
-0.134;9.793;-0.055;0.0;0.0;0.0;12485;2021-01-16 16:14:37:666
-0.134;9.793;-0.055;0.0;0.0;0.0;12495;2021-01-16 16:14:37:676
-0.134;9.793;-0.055;0.0;0.0;0.0;12506;2021-01-16 16:14:37:687
-0.134;9.793;-0.055;0.0;0.0;0.0;12515;2021-01-16 16:14:37:696
-0.134;9.793;-0.055;0.0;0.0;0.0;12525;2021-01-16 16:14:37:706
-0.134;9.793;-0.055;0.0;0.0;0.0;12536;2021-01-16 16:14:37:717
-0.108;9.781;-0.026;0.0;0.0;0.0;12546;2021-01-16 16:14:37:727
-0.108;9.781;-0.026;0.0;0.0;0.0;12555;2021-01-16 16:14:37:736
-0.108;9.781;-0.026;0.0;0.0;0.0;12565;2021-01-16 16:14:37:746
-0.108;9.781;-0.026;0.0;0.0;0.0;12576;2021-01-16 16:14:37:757
-0.108;9.781;-0.026;0.0;0.0;0.0;12585;2021-01-16 16:14:37:766
-0.108;9.781;-0.026;0.0;0.0;0.0;12596;2021-01-16 16:14:37:777
-0.148;9.793;-0.034;0.0;0.0;0.0;12606;2021-01-16 16:14:37:787
-0.148;9.793;-0.034;0.0;0.0;0.0;12615;2021-01-16 16:14:37:796
-0.148;9.793;-0.034;0.0;0.0;0.0;12626;2021-01-16 16:14:37:807
-0.148;9.793;-0.034;0.0;0.0;0.0;12635;2021-01-16 16:14:37:816
-0.148;9.793;-0.034;0.0;0.0;0.0;12645;2021-01-16 16:14:37:826
-0.148;9.793;-0.034;0.0;0.0;0.0;12656;2021-01-16 16:14:37:837
-0.12;9.781;-0.024;0.0;0.0;0.0;12665;2021-01-16 16:14:37:846
-0.12;9.781;-0.024;0.0;0.0;0.0;12675;2021-01-16 16:14:37:856
-0.12;9.781;-0.024;0.0;0.0;0.0;12685;2021-01-16 16:14:37:866
-0.12;9.781;-0.024;0.0;0.0;0.0;12696;2021-01-16 16:14:37:877
-0.12;9.781;-0.024;0.0;0.0;0.0;12706;2021-01-16 16:14:37:887
-0.12;9.781;-0.024;0.0;0.0;0.0;12715;2021-01-16 16:14:37:896
-0.132;9.788;-0.036;0.0;0.0;0.0;12725;2021-01-16 16:14:37:906
-0.132;9.788;-0.036;0.0;0.0;0.0;12735;2021-01-16 16:14:37:916
-0.132;9.788;-0.036;0.0;0.0;0.0;12748;2021-01-16 16:14:37:929
-0.132;9.788;-0.036;0.0;0.0;0.0;12755;2021-01-16 16:14:37:936
-0.132;9.788;-0.036;0.0;0.0;0.0;12765;2021-01-16 16:14:37:946
-0.132;9.788;-0.036;0.0;0.0;0.0;12775;2021-01-16 16:14:37:956
-0.129;9.79;-0.029;0.0;0.0;0.0;12785;2021-01-16 16:14:37:966
-0.129;9.79;-0.029;0.0;0.0;0.0;12795;2021-01-16 16:14:37:976
-0.129;9.79;-0.029;0.0;0.0;0.0;12805;2021-01-16 16:14:37:986
-0.129;9.79;-0.029;0.0;0.0;0.0;12816;2021-01-16 16:14:37:997
-0.129;9.79;-0.029;0.0;0.0;0.0;12825;2021-01-16 16:14:38:006
-0.129;9.79;-0.029;0.0;0.0;0.0;12836;2021-01-16 16:14:38:017
-0.122;9.807;-0.048;0.0;0.0;0.0;12845;2021-01-16 16:14:38:026
-0.122;9.807;-0.048;0.0;0.0;0.0;12855;2021-01-16 16:14:38:036
-0.122;9.807;-0.048;0.0;0.0;0.0;12865;2021-01-16 16:14:38:046
-0.122;9.807;-0.048;0.0;0.0;0.0;12877;2021-01-16 16:14:38:058
-0.122;9.807;-0.048;0.0;0.0;0.0;12885;2021-01-16 16:14:38:066
-0.122;9.807;-0.048;0.0;0.0;0.0;12896;2021-01-16 16:14:38:077
-0.129;9.766;-0.034;0.0;0.0;0.0;12914;2021-01-16 16:14:38:095
-0.129;9.766;-0.034;0.0;0.0;0.0;12915;2021-01-16 16:14:38:096
-0.129;9.766;-0.034;0.0;0.0;0.0;12925;2021-01-16 16:14:38:106
-0.129;9.766;-0.034;0.0;0.0;0.0;12935;2021-01-16 16:14:38:116
-0.129;9.766;-0.034;0.0;0.0;0.0;12945;2021-01-16 16:14:38:126
-0.129;9.766;-0.034;0.0;0.0;0.0;12959;2021-01-16 16:14:38:140
-0.139;9.773;-0.036;0.0;0.0;0.0;12967;2021-01-16 16:14:38:148
-0.139;9.773;-0.036;0.0;0.0;0.0;12975;2021-01-16 16:14:38:156
-0.139;9.773;-0.036;0.0;0.0;0.0;12985;2021-01-16 16:14:38:166
-0.139;9.773;-0.036;0.0;0.0;0.0;12995;2021-01-16 16:14:38:176
-0.139;9.773;-0.036;0.0;0.0;0.0;13006;2021-01-16 16:14:38:187
-0.139;9.773;-0.036;0.0;0.0;0.0;13015;2021-01-16 16:14:38:196
-0.134;9.771;-0.036;0.0;0.0;0.0;13026;2021-01-16 16:14:38:207
-0.134;9.771;-0.036;0.0;0.0;0.0;13036;2021-01-16 16:14:38:217
-0.134;9.771;-0.036;0.0;0.0;0.0;13046;2021-01-16 16:14:38:227
-0.134;9.771;-0.036;0.0;0.0;0.0;13055;2021-01-16 16:14:38:236
-0.134;9.771;-0.036;0.0;0.0;0.0;13068;2021-01-16 16:14:38:249
-0.134;9.771;-0.036;0.0;0.0;0.0;13075;2021-01-16 16:14:38:256
-0.127;9.797;-0.041;0.0;0.0;0.0;13088;2021-01-16 16:14:38:269
-0.127;9.797;-0.041;0.0;0.0;0.0;13095;2021-01-16 16:14:38:276
-0.127;9.797;-0.041;0.0;0.0;0.0;13106;2021-01-16 16:14:38:287
-0.127;9.797;-0.041;0.0;0.0;0.0;13119;2021-01-16 16:14:38:300
-0.127;9.797;-0.041;0.0;0.0;0.0;13128;2021-01-16 16:14:38:309
-0.127;9.797;-0.041;0.0;0.0;0.0;13135;2021-01-16 16:14:38:316
-0.132;9.795;-0.045;0.0;0.0;0.0;13145;2021-01-16 16:14:38:326
-0.132;9.795;-0.045;0.0;0.0;0.0;13158;2021-01-16 16:14:38:339
-0.132;9.795;-0.045;0.0;0.0;0.0;13165;2021-01-16 16:14:38:346
-0.132;9.795;-0.045;0.0;0.0;0.0;13175;2021-01-16 16:14:38:356
-0.132;9.795;-0.045;0.0;0.0;0.0;13185;2021-01-16 16:14:38:366
-0.132;9.795;-0.045;0.0;0.0;0.0;13195;2021-01-16 16:14:38:376
-0.141;9.781;-0.036;0.0;0.0;0.0;13205;2021-01-16 16:14:38:386
-0.141;9.781;-0.036;0.0;0.0;0.0;13216;2021-01-16 16:14:38:397
-0.141;9.781;-0.036;0.0;0.0;0.0;13225;2021-01-16 16:14:38:406
-0.141;9.781;-0.036;0.0;0.0;0.0;13237;2021-01-16 16:14:38:418
-0.141;9.781;-0.036;0.0;0.0;0.0;13245;2021-01-16 16:14:38:426
-0.141;9.781;-0.036;0.0;0.0;0.0;13256;2021-01-16 16:14:38:437
-0.115;9.783;-0.041;0.0;0.0;0.0;13267;2021-01-16 16:14:38:448
-0.115;9.783;-0.041;0.0;0.0;0.0;13275;2021-01-16 16:14:38:456
-0.115;9.783;-0.041;0.0;0.0;0.0;13285;2021-01-16 16:14:38:466
-0.115;9.783;-0.041;0.0;0.0;0.0;13295;2021-01-16 16:14:38:476
-0.115;9.783;-0.041;0.0;0.0;0.0;13308;2021-01-16 16:14:38:489
-0.115;9.783;-0.041;0.0;0.0;0.0;13315;2021-01-16 16:14:38:496
-0.127;9.785;-0.045;0.0;0.0;0.0;13325;2021-01-16 16:14:38:506
-0.127;9.785;-0.045;0.0;0.0;0.0;13335;2021-01-16 16:14:38:516
-0.127;9.785;-0.045;0.0;0.0;0.0;13345;2021-01-16 16:14:38:526
-0.127;9.785;-0.045;0.0;0.0;0.0;13358;2021-01-16 16:14:38:539
-0.127;9.785;-0.045;0.0;0.0;0.0;13368;2021-01-16 16:14:38:549
-0.127;9.785;-0.045;0.0;0.0;0.0;13375;2021-01-16 16:14:38:556
-0.146;9.776;-0.026;0.0;0.0;0.0;13386;2021-01-16 16:14:38:567
-0.146;9.776;-0.026;0.0;0.0;0.0;13395;2021-01-16 16:14:38:576
-0.146;9.776;-0.026;0.0;0.0;0.0;13405;2021-01-16 16:14:38:586
-0.146;9.776;-0.026;0.0;0.0;0.0;13415;2021-01-16 16:14:38:596
-0.146;9.776;-0.026;0.0;0.0;0.0;13425;2021-01-16 16:14:38:606
-0.146;9.776;-0.026;0.0;0.0;0.0;13435;2021-01-16 16:14:38:616
-0.132;9.783;-0.045;0.0;0.0;0.0;13445;2021-01-16 16:14:38:626
-0.132;9.783;-0.045;0.0;0.0;0.0;13456;2021-01-16 16:14:38:637
-0.132;9.783;-0.045;0.0;0.0;0.0;13465;2021-01-16 16:14:38:646
-0.132;9.783;-0.045;0.0;0.0;0.0;13475;2021-01-16 16:14:38:656
-0.132;9.783;-0.045;0.0;0.0;0.0;13485;2021-01-16 16:14:38:666
-0.132;9.783;-0.045;0.0;0.0;0.0;13495;2021-01-16 16:14:38:676
-0.136;9.783;-0.045;0.0;0.0;0.0;13505;2021-01-16 16:14:38:686
-0.136;9.783;-0.045;0.0;0.0;0.0;13515;2021-01-16 16:14:38:696
-0.136;9.783;-0.045;0.0;0.0;0.0;13528;2021-01-16 16:14:38:709
-0.136;9.783;-0.045;0.0;0.0;0.0;13535;2021-01-16 16:14:38:716
-0.136;9.783;-0.045;0.0;0.0;0.0;13545;2021-01-16 16:14:38:726
-0.136;9.783;-0.045;0.0;0.0;0.0;13556;2021-01-16 16:14:38:737
-0.134;9.785;-0.043;0.0;0.0;0.0;13565;2021-01-16 16:14:38:746
-0.134;9.785;-0.043;0.0;0.0;0.0;13580;2021-01-16 16:14:38:761
-0.134;9.785;-0.043;0.0;0.0;0.0;13586;2021-01-16 16:14:38:767
-0.134;9.785;-0.043;0.0;0.0;0.0;13595;2021-01-16 16:14:38:776
-0.134;9.785;-0.043;0.0;0.0;0.0;13605;2021-01-16 16:14:38:786
-0.134;9.785;-0.043;0.0;0.0;0.0;13615;2021-01-16 16:14:38:796
-0.12;9.795;-0.036;0.0;0.0;0.0;13625;2021-01-16 16:14:38:806
-0.12;9.795;-0.036;0.0;0.0;0.0;13635;2021-01-16 16:14:38:816
-0.12;9.795;-0.036;0.0;0.0;0.0;13645;2021-01-16 16:14:38:826
-0.12;9.795;-0.036;0.0;0.0;0.0;13655;2021-01-16 16:14:38:836
-0.12;9.795;-0.036;0.0;0.0;0.0;13665;2021-01-16 16:14:38:846
-0.12;9.795;-0.036;0.0;0.0;0.0;13676;2021-01-16 16:14:38:857
-0.132;9.788;-0.043;0.0;0.0;0.0;13688;2021-01-16 16:14:38:869
-0.132;9.788;-0.043;0.0;0.0;0.0;13696;2021-01-16 16:14:38:877
-0.132;9.788;-0.043;0.0;0.0;0.0;13705;2021-01-16 16:14:38:886
-0.132;9.788;-0.043;0.0;0.0;0.0;13716;2021-01-16 16:14:38:897
-0.132;9.788;-0.043;0.0;0.0;0.0;13725;2021-01-16 16:14:38:906
-0.132;9.788;-0.043;0.0;0.0;0.0;13735;2021-01-16 16:14:38:916
-0.129;9.79;-0.045;0.0;0.0;0.0;13745;2021-01-16 16:14:38:926
-0.129;9.79;-0.045;0.0;0.0;0.0;13755;2021-01-16 16:14:38:936
-0.129;9.79;-0.045;0.0;0.0;0.0;13766;2021-01-16 16:14:38:947
-0.129;9.79;-0.045;0.0;0.0;0.0;13775;2021-01-16 16:14:38:956
-0.129;9.79;-0.045;0.0;0.0;0.0;13787;2021-01-16 16:14:38:968
-0.129;9.79;-0.045;0.0;0.0;0.0;13795;2021-01-16 16:14:38:976
-0.132;9.781;-0.038;0.0;0.0;0.0;13805;2021-01-16 16:14:38:986
-0.132;9.781;-0.038;0.0;0.0;0.0;13815;2021-01-16 16:14:38:996
-0.132;9.781;-0.038;0.0;0.0;0.0;13825;2021-01-16 16:14:39:006
-0.132;9.781;-0.038;0.0;0.0;0.0;13835;2021-01-16 16:14:39:016
-0.132;9.781;-0.038;0.0;0.0;0.0;13845;2021-01-16 16:14:39:026
-0.132;9.781;-0.038;0.0;0.0;0.0;13855;2021-01-16 16:14:39:036
-0.12;9.783;-0.038;0.0;0.0;0.0;13865;2021-01-16 16:14:39:046
-0.12;9.783;-0.038;0.0;0.0;0.0;13879;2021-01-16 16:14:39:060
-0.12;9.783;-0.038;0.0;0.0;0.0;13887;2021-01-16 16:14:39:068
-0.12;9.783;-0.038;0.0;0.0;0.0;13896;2021-01-16 16:14:39:077
-0.12;9.783;-0.038;0.0;0.0;0.0;13907;2021-01-16 16:14:39:088
-0.12;9.783;-0.038;0.0;0.0;0.0;13915;2021-01-16 16:14:39:096
-0.12;9.783;-0.06;0.0;0.0;0.0;13926;2021-01-16 16:14:39:107
-0.12;9.783;-0.06;0.0;0.0;0.0;13935;2021-01-16 16:14:39:116
-0.12;9.783;-0.06;0.0;0.0;0.0;13945;2021-01-16 16:14:39:126
-0.12;9.783;-0.06;0.0;0.0;0.0;13956;2021-01-16 16:14:39:137
-0.12;9.783;-0.06;0.0;0.0;0.0;13966;2021-01-16 16:14:39:147
-0.12;9.783;-0.06;0.0;0.0;0.0;13976;2021-01-16 16:14:39:157
-0.132;9.793;-0.012;0.0;0.0;0.0;13987;2021-01-16 16:14:39:168
-0.132;9.793;-0.012;0.0;0.0;0.0;13995;2021-01-16 16:14:39:176
-0.132;9.793;-0.012;0.0;0.0;0.0;14005;2021-01-16 16:14:39:186
-0.132;9.793;-0.012;0.0;0.0;0.0;14016;2021-01-16 16:14:39:197
-0.132;9.793;-0.012;0.0;0.0;0.0;14028;2021-01-16 16:14:39:209
-0.132;9.793;-0.012;0.0;0.0;0.0;14036;2021-01-16 16:14:39:217
-0.132;9.793;-0.012;0.0;0.0;0.0;14045;2021-01-16 16:14:39:226
-0.117;9.795;-0.05;0.0;0.0;0.0;14055;2021-01-16 16:14:39:236
-0.117;9.795;-0.05;0.0;0.0;0.0;14065;2021-01-16 16:14:39:246
-0.117;9.795;-0.05;0.0;0.0;0.0;14075;2021-01-16 16:14:39:256
-0.117;9.795;-0.05;0.0;0.0;0.0;14085;2021-01-16 16:14:39:266
-0.117;9.795;-0.05;0.0;0.0;0.0;14095;2021-01-16 16:14:39:276
-0.127;9.778;-0.017;0.0;0.0;0.0;14117;2021-01-16 16:14:39:298
-0.127;9.778;-0.017;0.0;0.0;0.0;14118;2021-01-16 16:14:39:299
-0.127;9.778;-0.017;0.0;0.0;0.0;14125;2021-01-16 16:14:39:306
-0.127;9.778;-0.017;0.0;0.0;0.0;14137;2021-01-16 16:14:39:318
-0.127;9.778;-0.017;0.0;0.0;0.0;14145;2021-01-16 16:14:39:326
-0.127;9.778;-0.017;0.0;0.0;0.0;14155;2021-01-16 16:14:39:336
-0.132;9.797;-0.055;0.0;0.0;0.0;14165;2021-01-16 16:14:39:346
-0.132;9.797;-0.055;0.0;0.0;0.0;14175;2021-01-16 16:14:39:356
-0.132;9.797;-0.055;0.0;0.0;0.0;14185;2021-01-16 16:14:39:366
-0.132;9.797;-0.055;0.0;0.0;0.0;14196;2021-01-16 16:14:39:377
-0.132;9.797;-0.055;0.0;0.0;0.0;14206;2021-01-16 16:14:39:387
-0.132;9.797;-0.055;0.0;0.0;0.0;14217;2021-01-16 16:14:39:398
-0.129;9.785;-0.041;0.0;0.0;0.0;14225;2021-01-16 16:14:39:406
-0.129;9.785;-0.041;0.0;0.0;0.0;14235;2021-01-16 16:14:39:416
-0.129;9.785;-0.041;0.0;0.0;0.0;14245;2021-01-16 16:14:39:426
-0.129;9.785;-0.041;0.0;0.0;0.0;14255;2021-01-16 16:14:39:436
-0.129;9.785;-0.041;0.0;0.0;0.0;14268;2021-01-16 16:14:39:449
-0.129;9.785;-0.041;0.0;0.0;0.0;14275;2021-01-16 16:14:39:456
-0.129;9.778;-0.043;0.0;0.0;0.0;14285;2021-01-16 16:14:39:466
-0.129;9.778;-0.043;0.0;0.0;0.0;14297;2021-01-16 16:14:39:478
-0.129;9.778;-0.043;0.0;0.0;0.0;14305;2021-01-16 16:14:39:486
-0.129;9.778;-0.043;0.0;0.0;0.0;14315;2021-01-16 16:14:39:496
-0.129;9.778;-0.043;0.0;0.0;0.0;14325;2021-01-16 16:14:39:506
-0.129;9.778;-0.043;0.0;0.0;0.0;14335;2021-01-16 16:14:39:516
-0.129;9.781;-0.022;0.0;0.0;0.0;14346;2021-01-16 16:14:39:527
-0.129;9.781;-0.022;0.0;0.0;0.0;14355;2021-01-16 16:14:39:536
-0.129;9.781;-0.022;0.0;0.0;0.0;14365;2021-01-16 16:14:39:546
-0.129;9.781;-0.022;0.0;0.0;0.0;14379;2021-01-16 16:14:39:560
-0.129;9.781;-0.022;0.0;0.0;0.0;14386;2021-01-16 16:14:39:567
-0.129;9.781;-0.022;0.0;0.0;0.0;14396;2021-01-16 16:14:39:577
-0.127;9.795;-0.024;0.0;0.0;0.0;14406;2021-01-16 16:14:39:587
-0.127;9.795;-0.024;0.0;0.0;0.0;14415;2021-01-16 16:14:39:596
-0.127;9.795;-0.024;0.0;0.0;0.0;14425;2021-01-16 16:14:39:606
-0.127;9.795;-0.024;0.0;0.0;0.0;14435;2021-01-16 16:14:39:616
-0.127;9.795;-0.024;0.0;0.0;0.0;14446;2021-01-16 16:14:39:627
-0.127;9.795;-0.024;0.0;0.0;0.0;14455;2021-01-16 16:14:39:636
-0.134;9.795;-0.034;0.0;0.0;0.0;14466;2021-01-16 16:14:39:647
-0.134;9.795;-0.034;0.0;0.0;0.0;14477;2021-01-16 16:14:39:658
-0.134;9.795;-0.034;0.0;0.0;0.0;14485;2021-01-16 16:14:39:666
-0.134;9.795;-0.034;0.0;0.0;0.0;14495;2021-01-16 16:14:39:676
-0.134;9.795;-0.034;0.0;0.0;0.0;14505;2021-01-16 16:14:39:686
-0.134;9.795;-0.034;0.0;0.0;0.0;14515;2021-01-16 16:14:39:696
-0.11;9.79;-0.029;0.0;0.0;0.0;14526;2021-01-16 16:14:39:707
-0.11;9.79;-0.029;0.0;0.0;0.0;14535;2021-01-16 16:14:39:716
-0.11;9.79;-0.029;0.0;0.0;0.0;14546;2021-01-16 16:14:39:727
-0.11;9.79;-0.029;0.0;0.0;0.0;14555;2021-01-16 16:14:39:736
-0.11;9.79;-0.029;0.0;0.0;0.0;14566;2021-01-16 16:14:39:747
-0.11;9.79;-0.029;0.0;0.0;0.0;14576;2021-01-16 16:14:39:757
-0.125;9.785;-0.026;0.0;0.0;0.0;14586;2021-01-16 16:14:39:767
-0.125;9.785;-0.026;0.0;0.0;0.0;14600;2021-01-16 16:14:39:781
-0.125;9.785;-0.026;0.0;0.0;0.0;14605;2021-01-16 16:14:39:786
-0.125;9.785;-0.026;0.0;0.0;0.0;14615;2021-01-16 16:14:39:796
-0.125;9.785;-0.026;0.0;0.0;0.0;14625;2021-01-16 16:14:39:806
-0.125;9.785;-0.026;0.0;0.0;0.0;14636;2021-01-16 16:14:39:817
-0.146;9.788;-0.043;0.0;0.0;0.0;14645;2021-01-16 16:14:39:826
-0.146;9.788;-0.043;0.0;0.0;0.0;14656;2021-01-16 16:14:39:837
-0.146;9.788;-0.043;0.0;0.0;0.0;14666;2021-01-16 16:14:39:847
-0.146;9.788;-0.043;0.0;0.0;0.0;14675;2021-01-16 16:14:39:856
-0.146;9.788;-0.043;0.0;0.0;0.0;14696;2021-01-16 16:14:39:877
-0.146;9.788;-0.043;0.0;0.0;0.0;14697;2021-01-16 16:14:39:878
-0.136;9.788;-0.041;0.0;0.0;0.0;14705;2021-01-16 16:14:39:886
-0.136;9.788;-0.041;0.0;0.0;0.0;14715;2021-01-16 16:14:39:896
-0.136;9.788;-0.041;0.0;0.0;0.0;14726;2021-01-16 16:14:39:907
-0.136;9.788;-0.041;0.0;0.0;0.0;14735;2021-01-16 16:14:39:916
-0.136;9.788;-0.041;0.0;0.0;0.0;14745;2021-01-16 16:14:39:926
-0.136;9.788;-0.041;0.0;0.0;0.0;14755;2021-01-16 16:14:39:936
-0.122;9.79;-0.031;0.0;0.0;0.0;14765;2021-01-16 16:14:39:946
-0.122;9.79;-0.031;0.0;0.0;0.0;14776;2021-01-16 16:14:39:957
-0.122;9.79;-0.031;0.0;0.0;0.0;14785;2021-01-16 16:14:39:966
-0.122;9.79;-0.031;0.0;0.0;0.0;14796;2021-01-16 16:14:39:977
-0.122;9.79;-0.031;0.0;0.0;0.0;14805;2021-01-16 16:14:39:986
-0.122;9.79;-0.031;0.0;0.0;0.0;14815;2021-01-16 16:14:39:996
-0.134;9.785;-0.043;0.0;0.0;0.0;14825;2021-01-16 16:14:40:006
-0.134;9.785;-0.043;0.0;0.0;0.0;14835;2021-01-16 16:14:40:016
-0.134;9.785;-0.043;0.0;0.0;0.0;14845;2021-01-16 16:14:40:026
-0.134;9.785;-0.043;0.0;0.0;0.0;14855;2021-01-16 16:14:40:036
-0.134;9.785;-0.043;0.0;0.0;0.0;14866;2021-01-16 16:14:40:047
-0.134;9.785;-0.043;0.0;0.0;0.0;14875;2021-01-16 16:14:40:056
-0.113;9.797;-0.043;0.0;0.0;0.0;14885;2021-01-16 16:14:40:066
-0.113;9.797;-0.043;0.0;0.0;0.0;14895;2021-01-16 16:14:40:076
-0.113;9.797;-0.043;0.0;0.0;0.0;14905;2021-01-16 16:14:40:086
-0.113;9.797;-0.043;0.0;0.0;0.0;14915;2021-01-16 16:14:40:096
-0.113;9.797;-0.043;0.0;0.0;0.0;14925;2021-01-16 16:14:40:106
-0.113;9.797;-0.043;0.0;0.0;0.0;14935;2021-01-16 16:14:40:116
-0.115;9.776;-0.043;0.0;0.0;0.0;14946;2021-01-16 16:14:40:127
-0.115;9.776;-0.043;0.0;0.0;0.0;14955;2021-01-16 16:14:40:136
-0.115;9.776;-0.043;0.0;0.0;0.0;14965;2021-01-16 16:14:40:146
-0.115;9.776;-0.043;0.0;0.0;0.0;14975;2021-01-16 16:14:40:156
-0.115;9.776;-0.043;0.0;0.0;0.0;14985;2021-01-16 16:14:40:166
-0.115;9.776;-0.043;0.0;0.0;0.0;14995;2021-01-16 16:14:40:176
-0.122;9.771;-0.034;0.0;0.0;0.0;15006;2021-01-16 16:14:40:187
-0.122;9.771;-0.034;0.0;0.0;0.0;15015;2021-01-16 16:14:40:196
-0.122;9.771;-0.034;0.0;0.0;0.0;15025;2021-01-16 16:14:40:206
-0.122;9.771;-0.034;0.0;0.0;0.0;15035;2021-01-16 16:14:40:216
-0.122;9.771;-0.034;0.0;0.0;0.0;15048;2021-01-16 16:14:40:229
-0.122;9.771;-0.034;0.0;0.0;0.0;15055;2021-01-16 16:14:40:236
-0.134;9.783;-0.045;0.0;0.0;0.0;15065;2021-01-16 16:14:40:246
-0.134;9.783;-0.045;0.0;0.0;0.0;15075;2021-01-16 16:14:40:256
-0.134;9.783;-0.045;0.0;0.0;0.0;15085;2021-01-16 16:14:40:266
-0.134;9.783;-0.045;0.0;0.0;0.0;15095;2021-01-16 16:14:40:276
-0.134;9.783;-0.045;0.0;0.0;0.0;15105;2021-01-16 16:14:40:286
-0.134;9.783;-0.045;0.0;0.0;0.0;15115;2021-01-16 16:14:40:296
-0.136;9.776;-0.022;0.0;0.0;0.0;15129;2021-01-16 16:14:40:310
-0.136;9.776;-0.022;0.0;0.0;0.0;15135;2021-01-16 16:14:40:316
-0.136;9.776;-0.022;0.0;0.0;0.0;15147;2021-01-16 16:14:40:328
-0.136;9.776;-0.022;0.0;0.0;0.0;15155;2021-01-16 16:14:40:336
-0.136;9.776;-0.022;0.0;0.0;0.0;15165;2021-01-16 16:14:40:346
-0.136;9.776;-0.022;0.0;0.0;0.0;15176;2021-01-16 16:14:40:357
-0.122;9.783;-0.048;0.0;0.0;0.0;15185;2021-01-16 16:14:40:366
-0.122;9.783;-0.048;0.0;0.0;0.0;15195;2021-01-16 16:14:40:376
-0.122;9.783;-0.048;0.0;0.0;0.0;15206;2021-01-16 16:14:40:387
-0.122;9.783;-0.048;0.0;0.0;0.0;15215;2021-01-16 16:14:40:396
-0.122;9.783;-0.048;0.0;0.0;0.0;15226;2021-01-16 16:14:40:407
-0.122;9.783;-0.048;0.0;0.0;0.0;15236;2021-01-16 16:14:40:417
-0.134;9.793;-0.045;0.0;0.0;0.0;15245;2021-01-16 16:14:40:426
-0.134;9.793;-0.045;0.0;0.0;0.0;15256;2021-01-16 16:14:40:437
-0.134;9.793;-0.045;0.0;0.0;0.0;15266;2021-01-16 16:14:40:447
-0.134;9.793;-0.045;0.0;0.0;0.0;15275;2021-01-16 16:14:40:456
-0.134;9.793;-0.045;0.0;0.0;0.0;15286;2021-01-16 16:14:40:467
-0.134;9.793;-0.045;0.0;0.0;0.0;15295;2021-01-16 16:14:40:476
-0.122;9.785;-0.012;0.0;0.0;0.0;15306;2021-01-16 16:14:40:487
-0.122;9.785;-0.012;0.0;0.0;0.0;15315;2021-01-16 16:14:40:496
-0.122;9.785;-0.012;0.0;0.0;0.0;15327;2021-01-16 16:14:40:508
-0.122;9.785;-0.012;0.0;0.0;0.0;15336;2021-01-16 16:14:40:517
-0.122;9.785;-0.012;0.0;0.0;0.0;15348;2021-01-16 16:14:40:529
-0.125;9.788;-0.043;0.0;0.0;0.0;15357;2021-01-16 16:14:40:538
-0.125;9.788;-0.043;0.0;0.0;0.0;15372;2021-01-16 16:14:40:553
-0.125;9.788;-0.043;0.0;0.0;0.0;15377;2021-01-16 16:14:40:558
-0.125;9.788;-0.043;0.0;0.0;0.0;15386;2021-01-16 16:14:40:567
-0.125;9.788;-0.043;0.0;0.0;0.0;15396;2021-01-16 16:14:40:577
-0.125;9.788;-0.043;0.0;0.0;0.0;15405;2021-01-16 16:14:40:586
-0.125;9.788;-0.043;0.0;0.0;0.0;15415;2021-01-16 16:14:40:596
-0.144;9.797;-0.041;0.0;0.0;0.0;15425;2021-01-16 16:14:40:606
-0.144;9.797;-0.041;0.0;0.0;0.0;15435;2021-01-16 16:14:40:616
-0.144;9.797;-0.041;0.0;0.0;0.0;15447;2021-01-16 16:14:40:628
-0.144;9.797;-0.041;0.0;0.0;0.0;15455;2021-01-16 16:14:40:636
-0.144;9.797;-0.041;0.0;0.0;0.0;15465;2021-01-16 16:14:40:646
-0.144;9.797;-0.041;0.0;0.0;0.0;15475;2021-01-16 16:14:40:656
-0.136;9.785;-0.026;0.0;0.0;0.0;15485;2021-01-16 16:14:40:666
-0.136;9.785;-0.026;0.0;0.0;0.0;15495;2021-01-16 16:14:40:676
-0.136;9.785;-0.026;0.0;0.0;0.0;15505;2021-01-16 16:14:40:686
-0.136;9.785;-0.026;0.0;0.0;0.0;15515;2021-01-16 16:14:40:696
-0.136;9.785;-0.026;0.0;0.0;0.0;15525;2021-01-16 16:14:40:706
-0.136;9.785;-0.026;0.0;0.0;0.0;15536;2021-01-16 16:14:40:717
-0.144;9.785;-0.026;0.0;0.0;0.0;15545;2021-01-16 16:14:40:726
-0.144;9.785;-0.026;0.0;0.0;0.0;15555;2021-01-16 16:14:40:736
-0.144;9.785;-0.026;0.0;0.0;0.0;15572;2021-01-16 16:14:40:753
-0.144;9.785;-0.026;0.0;0.0;0.0;15575;2021-01-16 16:14:40:756
-0.144;9.785;-0.026;0.0;0.0;0.0;15586;2021-01-16 16:14:40:767
-0.144;9.785;-0.026;0.0;0.0;0.0;15595;2021-01-16 16:14:40:776
-0.12;9.785;-0.024;0.0;0.0;0.0;15605;2021-01-16 16:14:40:786
-0.12;9.785;-0.024;0.0;0.0;0.0;15615;2021-01-16 16:14:40:796
-0.12;9.785;-0.024;0.0;0.0;0.0;15625;2021-01-16 16:14:40:806
-0.12;9.785;-0.024;0.0;0.0;0.0;15635;2021-01-16 16:14:40:816
-0.12;9.785;-0.024;0.0;0.0;0.0;15648;2021-01-16 16:14:40:829
-0.12;9.785;-0.024;0.0;0.0;0.0;15655;2021-01-16 16:14:40:836
-0.122;9.8;-0.06;0.0;0.0;0.0;15666;2021-01-16 16:14:40:847
-0.122;9.8;-0.06;0.0;0.0;0.0;15675;2021-01-16 16:14:40:856
-0.122;9.8;-0.06;0.0;0.0;0.0;15685;2021-01-16 16:14:40:866
-0.122;9.8;-0.06;0.0;0.0;0.0;15696;2021-01-16 16:14:40:877
-0.122;9.8;-0.06;0.0;0.0;0.0;15705;2021-01-16 16:14:40:886
-0.122;9.8;-0.06;0.0;0.0;0.0;15715;2021-01-16 16:14:40:896
-0.127;9.778;-0.038;0.0;0.0;0.0;15726;2021-01-16 16:14:40:907
-0.127;9.778;-0.038;0.0;0.0;0.0;15735;2021-01-16 16:14:40:916
-0.127;9.778;-0.038;0.0;0.0;0.0;15745;2021-01-16 16:14:40:926
-0.127;9.778;-0.038;0.0;0.0;0.0;15757;2021-01-16 16:14:40:938
-0.127;9.778;-0.038;0.0;0.0;0.0;15766;2021-01-16 16:14:40:947
-0.127;9.778;-0.038;0.0;0.0;0.0;15775;2021-01-16 16:14:40:956
-0.136;9.795;-0.031;0.0;0.0;0.0;15785;2021-01-16 16:14:40:966
-0.136;9.795;-0.031;0.0;0.0;0.0;15795;2021-01-16 16:14:40:976
-0.136;9.795;-0.031;0.0;0.0;0.0;15805;2021-01-16 16:14:40:986
-0.136;9.795;-0.031;0.0;0.0;0.0;15817;2021-01-16 16:14:40:998
-0.136;9.795;-0.031;0.0;0.0;0.0;15825;2021-01-16 16:14:41:006
-0.136;9.795;-0.031;0.0;0.0;0.0;15836;2021-01-16 16:14:41:017
-0.127;9.793;-0.043;0.0;0.0;0.0;15845;2021-01-16 16:14:41:026
-0.127;9.793;-0.043;0.0;0.0;0.0;15855;2021-01-16 16:14:41:036
-0.127;9.793;-0.043;0.0;0.0;0.0;15874;2021-01-16 16:14:41:055
-0.127;9.793;-0.043;0.0;0.0;0.0;15875;2021-01-16 16:14:41:056
-0.127;9.793;-0.043;0.0;0.0;0.0;15885;2021-01-16 16:14:41:066
-0.127;9.793;-0.043;0.0;0.0;0.0;15895;2021-01-16 16:14:41:076
-0.129;9.795;-0.043;0.0;0.0;0.0;15905;2021-01-16 16:14:41:086
-0.129;9.795;-0.043;0.0;0.0;0.0;15915;2021-01-16 16:14:41:096
-0.129;9.795;-0.043;0.0;0.0;0.0;15925;2021-01-16 16:14:41:106
-0.129;9.795;-0.043;0.0;0.0;0.0;15935;2021-01-16 16:14:41:116
-0.129;9.795;-0.043;0.0;0.0;0.0;15947;2021-01-16 16:14:41:128
-0.129;9.795;-0.043;0.0;0.0;0.0;15955;2021-01-16 16:14:41:136
-0.122;9.781;-0.041;0.0;0.0;0.0;15969;2021-01-16 16:14:41:150
-0.122;9.781;-0.041;0.0;0.0;0.0;15976;2021-01-16 16:14:41:157
-0.122;9.781;-0.041;0.0;0.0;0.0;15985;2021-01-16 16:14:41:166
-0.122;9.781;-0.041;0.0;0.0;0.0;15995;2021-01-16 16:14:41:176
-0.122;9.781;-0.041;0.0;0.0;0.0;16005;2021-01-16 16:14:41:186
-0.122;9.781;-0.041;0.0;0.0;0.0;16017;2021-01-16 16:14:41:198
-0.115;9.793;-0.034;0.0;0.0;0.0;16025;2021-01-16 16:14:41:206
-0.115;9.793;-0.034;0.0;0.0;0.0;16036;2021-01-16 16:14:41:217
-0.115;9.793;-0.034;0.0;0.0;0.0;16046;2021-01-16 16:14:41:227
-0.115;9.793;-0.034;0.0;0.0;0.0;16055;2021-01-16 16:14:41:236
-0.115;9.793;-0.034;0.0;0.0;0.0;16065;2021-01-16 16:14:41:246
-0.115;9.793;-0.034;0.0;0.0;0.0;16075;2021-01-16 16:14:41:256
-0.129;9.788;-0.031;0.0;0.0;0.0;16085;2021-01-16 16:14:41:266
-0.129;9.788;-0.031;0.0;0.0;0.0;16096;2021-01-16 16:14:41:277
-0.129;9.788;-0.031;0.0;0.0;0.0;16106;2021-01-16 16:14:41:287
-0.129;9.788;-0.031;0.0;0.0;0.0;16115;2021-01-16 16:14:41:296
-0.129;9.788;-0.031;0.0;0.0;0.0;16125;2021-01-16 16:14:41:306
-0.129;9.788;-0.031;0.0;0.0;0.0;16135;2021-01-16 16:14:41:316
-0.139;9.793;-0.045;0.0;0.0;0.0;16145;2021-01-16 16:14:41:326
-0.139;9.793;-0.045;0.0;0.0;0.0;16155;2021-01-16 16:14:41:336
-0.139;9.793;-0.045;0.0;0.0;0.0;16167;2021-01-16 16:14:41:348
-0.139;9.793;-0.045;0.0;0.0;0.0;16175;2021-01-16 16:14:41:356
-0.139;9.793;-0.045;0.0;0.0;0.0;16191;2021-01-16 16:14:41:372
-0.139;9.793;-0.045;0.0;0.0;0.0;16195;2021-01-16 16:14:41:376
-0.136;9.781;-0.043;0.0;0.0;0.0;16205;2021-01-16 16:14:41:386
-0.136;9.781;-0.043;0.0;0.0;0.0;16215;2021-01-16 16:14:41:396
-0.136;9.781;-0.043;0.0;0.0;0.0;16225;2021-01-16 16:14:41:406
-0.136;9.781;-0.043;0.0;0.0;0.0;16235;2021-01-16 16:14:41:416
-0.136;9.781;-0.043;0.0;0.0;0.0;16245;2021-01-16 16:14:41:426
-0.136;9.781;-0.043;0.0;0.0;0.0;16256;2021-01-16 16:14:41:437
-0.129;9.783;-0.05;0.0;0.0;0.0;16267;2021-01-16 16:14:41:448
-0.129;9.783;-0.05;0.0;0.0;0.0;16275;2021-01-16 16:14:41:456
-0.129;9.783;-0.05;0.0;0.0;0.0;16285;2021-01-16 16:14:41:466
-0.129;9.783;-0.05;0.0;0.0;0.0;16295;2021-01-16 16:14:41:476
-0.129;9.783;-0.05;0.0;0.0;0.0;16305;2021-01-16 16:14:41:486
-0.129;9.783;-0.05;0.0;0.0;0.0;16316;2021-01-16 16:14:41:497
-0.125;9.8;-0.05;0.0;0.0;0.0;16325;2021-01-16 16:14:41:506
-0.125;9.8;-0.05;0.0;0.0;0.0;16335;2021-01-16 16:14:41:516
-0.125;9.8;-0.05;0.0;0.0;0.0;16346;2021-01-16 16:14:41:527
-0.125;9.8;-0.05;0.0;0.0;0.0;16355;2021-01-16 16:14:41:536
-0.125;9.8;-0.05;0.0;0.0;0.0;16365;2021-01-16 16:14:41:546
-0.125;9.8;-0.05;0.0;0.0;0.0;16375;2021-01-16 16:14:41:556
-0.125;9.771;-0.038;0.0;0.0;0.0;16385;2021-01-16 16:14:41:566
-0.125;9.771;-0.038;0.0;0.0;0.0;16396;2021-01-16 16:14:41:577
-0.125;9.771;-0.038;0.0;0.0;0.0;16406;2021-01-16 16:14:41:587
-0.125;9.771;-0.038;0.0;0.0;0.0;16415;2021-01-16 16:14:41:596
-0.125;9.771;-0.038;0.0;0.0;0.0;16425;2021-01-16 16:14:41:606
-0.125;9.771;-0.038;0.0;0.0;0.0;16435;2021-01-16 16:14:41:616
-0.122;9.773;-0.031;0.0;0.0;0.0;16445;2021-01-16 16:14:41:626
-0.122;9.773;-0.031;0.0;0.0;0.0;16456;2021-01-16 16:14:41:637
-0.122;9.773;-0.031;0.0;0.0;0.0;16466;2021-01-16 16:14:41:647
-0.122;9.773;-0.031;0.0;0.0;0.0;16477;2021-01-16 16:14:41:658
-0.122;9.773;-0.031;0.0;0.0;0.0;16486;2021-01-16 16:14:41:667
-0.122;9.773;-0.031;0.0;0.0;0.0;16495;2021-01-16 16:14:41:676
-0.139;9.778;-0.041;0.0;0.0;0.0;16505;2021-01-16 16:14:41:686
-0.139;9.778;-0.041;0.0;0.0;0.0;16515;2021-01-16 16:14:41:696
-0.139;9.778;-0.041;0.0;0.0;0.0;16525;2021-01-16 16:14:41:706
-0.139;9.778;-0.041;0.0;0.0;0.0;16535;2021-01-16 16:14:41:716
-0.139;9.778;-0.041;0.0;0.0;0.0;16545;2021-01-16 16:14:41:726
-0.139;9.778;-0.041;0.0;0.0;0.0;16555;2021-01-16 16:14:41:736
-0.141;9.788;-0.055;0.0;0.0;0.0;16565;2021-01-16 16:14:41:746
-0.141;9.788;-0.055;0.0;0.0;0.0;16575;2021-01-16 16:14:41:756
-0.141;9.788;-0.055;0.0;0.0;0.0;16586;2021-01-16 16:14:41:767
-0.141;9.788;-0.055;0.0;0.0;0.0;16595;2021-01-16 16:14:41:776
-0.141;9.788;-0.055;0.0;0.0;0.0;16605;2021-01-16 16:14:41:786
-0.141;9.788;-0.055;0.0;0.0;0.0;16615;2021-01-16 16:14:41:796
-0.136;9.8;-0.026;0.0;0.0;0.0;16625;2021-01-16 16:14:41:806
-0.136;9.8;-0.026;0.0;0.0;0.0;16635;2021-01-16 16:14:41:816
-0.136;9.8;-0.026;0.0;0.0;0.0;16645;2021-01-16 16:14:41:826
-0.136;9.8;-0.026;0.0;0.0;0.0;16656;2021-01-16 16:14:41:837
-0.136;9.8;-0.026;0.0;0.0;0.0;16665;2021-01-16 16:14:41:846
-0.136;9.8;-0.026;0.0;0.0;0.0;16675;2021-01-16 16:14:41:856
-0.117;9.785;-0.029;0.0;0.0;0.0;16685;2021-01-16 16:14:41:866
-0.117;9.785;-0.029;0.0;0.0;0.0;16695;2021-01-16 16:14:41:876
-0.117;9.785;-0.029;0.0;0.0;0.0;16706;2021-01-16 16:14:41:887
-0.117;9.785;-0.029;0.0;0.0;0.0;16719;2021-01-16 16:14:41:900
-0.117;9.785;-0.029;0.0;0.0;0.0;16726;2021-01-16 16:14:41:907
-0.125;9.778;-0.065;0.0;0.0;0.0;16740;2021-01-16 16:14:41:921
-0.125;9.778;-0.065;0.0;0.0;0.0;16745;2021-01-16 16:14:41:926
-0.125;9.778;-0.065;0.0;0.0;0.0;16756;2021-01-16 16:14:41:937
-0.125;9.778;-0.065;0.0;0.0;0.0;16767;2021-01-16 16:14:41:948
-0.125;9.778;-0.065;0.0;0.0;0.0;16776;2021-01-16 16:14:41:957
-0.125;9.778;-0.065;0.0;0.0;0.0;16785;2021-01-16 16:14:41:966
-0.125;9.778;-0.065;0.0;0.0;0.0;16795;2021-01-16 16:14:41:976
-0.101;9.785;-0.026;0.0;0.0;0.0;16805;2021-01-16 16:14:41:986
-0.101;9.785;-0.026;0.0;0.0;0.0;16815;2021-01-16 16:14:41:996
-0.101;9.785;-0.026;0.0;0.0;0.0;16825;2021-01-16 16:14:42:006
-0.101;9.785;-0.026;0.0;0.0;0.0;16835;2021-01-16 16:14:42:016
-0.101;9.785;-0.026;0.0;0.0;0.0;16845;2021-01-16 16:14:42:026
-0.101;9.785;-0.026;0.0;0.0;0.0;16855;2021-01-16 16:14:42:036
-0.132;9.788;-0.045;0.0;0.0;0.0;16865;2021-01-16 16:14:42:046
-0.132;9.788;-0.045;0.0;0.0;0.0;16875;2021-01-16 16:14:42:056
-0.132;9.788;-0.045;0.0;0.0;0.0;16885;2021-01-16 16:14:42:066
-0.132;9.788;-0.045;0.0;0.0;0.0;16895;2021-01-16 16:14:42:076
-0.132;9.788;-0.045;0.0;-0.001;0.0;16905;2021-01-16 16:14:42:086
-0.132;9.788;-0.045;0.0;-0.001;0.0;16915;2021-01-16 16:14:42:096
-0.141;9.79;-0.048;0.0;-0.001;0.0;16925;2021-01-16 16:14:42:106
-0.141;9.79;-0.048;0.0;-0.001;0.0;16935;2021-01-16 16:14:42:116
-0.141;9.79;-0.048;0.0;-0.001;0.0;16945;2021-01-16 16:14:42:126
-0.141;9.79;-0.048;0.0;-0.001;0.0;16956;2021-01-16 16:14:42:137
-0.141;9.79;-0.048;0.0;-0.001;0.0;16965;2021-01-16 16:14:42:146
-0.141;9.79;-0.048;0.0;-0.001;0.0;16975;2021-01-16 16:14:42:156
-0.139;9.783;-0.045;0.0;-0.001;0.0;16985;2021-01-16 16:14:42:166
-0.139;9.783;-0.045;0.0;-0.001;0.0;16995;2021-01-16 16:14:42:176
-0.139;9.783;-0.045;0.0;-0.001;0.0;17005;2021-01-16 16:14:42:186
-0.139;9.783;-0.045;0.0;-0.001;0.0;17015;2021-01-16 16:14:42:196
-0.139;9.783;-0.045;0.0;0.0;0.0;17025;2021-01-16 16:14:42:206
-0.139;9.783;-0.045;0.0;0.0;0.0;17035;2021-01-16 16:14:42:216
-0.129;9.793;-0.019;0.0;0.0;0.0;17045;2021-01-16 16:14:42:226
-0.129;9.793;-0.019;0.0;0.0;0.0;17055;2021-01-16 16:14:42:236
-0.129;9.793;-0.019;0.0;0.0;0.0;17067;2021-01-16 16:14:42:248
-0.129;9.793;-0.019;0.0;0.0;0.0;17075;2021-01-16 16:14:42:256
-0.129;9.793;-0.019;0.0;0.0;0.0;17085;2021-01-16 16:14:42:266
-0.129;9.793;-0.019;0.0;0.0;0.0;17095;2021-01-16 16:14:42:276
-0.108;9.79;-0.034;0.0;0.0;0.0;17105;2021-01-16 16:14:42:286
-0.108;9.79;-0.034;0.0;0.0;0.0;17115;2021-01-16 16:14:42:296
-0.108;9.79;-0.034;0.0;0.0;0.0;17125;2021-01-16 16:14:42:306
-0.108;9.79;-0.034;0.0;0.0;0.0;17135;2021-01-16 16:14:42:316
-0.108;9.79;-0.034;0.0;0.0;0.0;17145;2021-01-16 16:14:42:326
-0.108;9.79;-0.034;0.0;0.0;0.0;17155;2021-01-16 16:14:42:336
-0.127;9.8;-0.055;0.0;0.0;0.0;17166;2021-01-16 16:14:42:347
-0.127;9.8;-0.055;0.0;0.0;0.0;17175;2021-01-16 16:14:42:356
-0.127;9.8;-0.055;0.0;0.0;0.0;17185;2021-01-16 16:14:42:366
-0.127;9.8;-0.055;0.0;0.0;0.0;17195;2021-01-16 16:14:42:376
-0.127;9.8;-0.055;0.0;0.0;0.0;17206;2021-01-16 16:14:42:387
-0.127;9.8;-0.055;0.0;0.0;0.0;17215;2021-01-16 16:14:42:396
-0.136;9.79;-0.038;0.0;0.0;0.0;17225;2021-01-16 16:14:42:406
-0.136;9.79;-0.038;0.0;0.0;0.0;17235;2021-01-16 16:14:42:416
-0.136;9.79;-0.038;0.0;0.0;0.0;17245;2021-01-16 16:14:42:426
-0.136;9.79;-0.038;0.0;0.0;0.0;17256;2021-01-16 16:14:42:437
-0.136;9.79;-0.038;0.0;0.0;0.0;17266;2021-01-16 16:14:42:447
-0.136;9.79;-0.038;0.0;0.0;0.0;17275;2021-01-16 16:14:42:456
-0.129;9.785;-0.029;0.0;0.0;0.0;17285;2021-01-16 16:14:42:466
-0.129;9.785;-0.029;0.0;0.0;0.0;17296;2021-01-16 16:14:42:477
-0.129;9.785;-0.029;0.0;0.0;0.0;17306;2021-01-16 16:14:42:487
-0.129;9.785;-0.029;0.0;0.0;0.0;17315;2021-01-16 16:14:42:496
-0.129;9.785;-0.029;0.0;0.0;0.0;17325;2021-01-16 16:14:42:506
-0.129;9.785;-0.029;0.0;0.0;0.0;17335;2021-01-16 16:14:42:516
-0.105;9.771;-0.05;0.0;0.0;0.0;17345;2021-01-16 16:14:42:526
-0.105;9.771;-0.05;0.0;0.0;0.0;17355;2021-01-16 16:14:42:536
-0.105;9.771;-0.05;0.0;0.0;0.0;17365;2021-01-16 16:14:42:546
-0.105;9.771;-0.05;0.0;0.0;0.0;17375;2021-01-16 16:14:42:556
-0.105;9.771;-0.05;0.0;0.0;0.0;17385;2021-01-16 16:14:42:566
-0.105;9.771;-0.05;0.0;0.0;0.0;17395;2021-01-16 16:14:42:576
-0.139;9.783;-0.043;0.0;0.0;0.0;17405;2021-01-16 16:14:42:586
-0.139;9.783;-0.043;0.0;0.0;0.0;17415;2021-01-16 16:14:42:596
-0.139;9.783;-0.043;0.0;0.0;0.0;17425;2021-01-16 16:14:42:606
-0.139;9.783;-0.043;0.0;0.0;0.0;17435;2021-01-16 16:14:42:616
-0.139;9.783;-0.043;0.0;0.0;0.0;17445;2021-01-16 16:14:42:626
-0.139;9.783;-0.043;0.0;0.0;0.0;17455;2021-01-16 16:14:42:636
-0.139;9.79;-0.048;0.0;0.0;0.0;17466;2021-01-16 16:14:42:647
-0.139;9.79;-0.048;0.0;0.0;0.0;17476;2021-01-16 16:14:42:657
-0.139;9.79;-0.048;0.0;0.0;0.0;17486;2021-01-16 16:14:42:667
-0.139;9.79;-0.048;0.0;0.0;0.0;17496;2021-01-16 16:14:42:677
-0.139;9.79;-0.048;0.0;0.0;0.0;17505;2021-01-16 16:14:42:686
-0.139;9.79;-0.048;0.0;0.0;0.0;17516;2021-01-16 16:14:42:697
-0.129;9.778;-0.041;0.0;0.0;0.0;17525;2021-01-16 16:14:42:706
-0.129;9.778;-0.041;0.0;0.0;0.0;17535;2021-01-16 16:14:42:716
-0.129;9.778;-0.041;0.0;0.0;0.0;17545;2021-01-16 16:14:42:726
-0.129;9.778;-0.041;0.0;0.0;0.0;17555;2021-01-16 16:14:42:736
-0.129;9.778;-0.041;0.0;0.0;0.0;17565;2021-01-16 16:14:42:746
-0.129;9.778;-0.041;0.0;0.0;0.0;17575;2021-01-16 16:14:42:756
-0.139;9.797;-0.043;0.0;0.0;0.0;17585;2021-01-16 16:14:42:766
-0.139;9.797;-0.043;0.0;0.0;0.0;17595;2021-01-16 16:14:42:776
-0.139;9.797;-0.043;0.0;0.0;0.0;17605;2021-01-16 16:14:42:786
-0.139;9.797;-0.043;0.0;0.0;0.0;17615;2021-01-16 16:14:42:796
-0.139;9.797;-0.043;0.0;0.0;0.0;17625;2021-01-16 16:14:42:806
-0.139;9.797;-0.043;0.0;0.0;0.0;17635;2021-01-16 16:14:42:816
-0.122;9.778;-0.045;0.0;0.0;0.0;17645;2021-01-16 16:14:42:826
-0.122;9.778;-0.045;0.0;0.0;0.0;17655;2021-01-16 16:14:42:836
-0.122;9.778;-0.045;0.0;0.0;0.0;17665;2021-01-16 16:14:42:846
-0.122;9.778;-0.045;0.0;0.0;0.0;17676;2021-01-16 16:14:42:857
-0.122;9.778;-0.045;0.0;0.0;0.0;17685;2021-01-16 16:14:42:866
-0.122;9.778;-0.045;0.0;0.0;0.0;17696;2021-01-16 16:14:42:877
-0.132;9.797;-0.036;0.0;0.0;0.0;17705;2021-01-16 16:14:42:886
-0.132;9.797;-0.036;0.0;0.0;0.0;17715;2021-01-16 16:14:42:896
-0.132;9.797;-0.036;0.0;0.0;0.0;17725;2021-01-16 16:14:42:906
-0.132;9.797;-0.036;0.0;0.0;0.0;17735;2021-01-16 16:14:42:916
-0.132;9.797;-0.036;0.0;0.0;0.0;17745;2021-01-16 16:14:42:926
-0.132;9.797;-0.036;0.0;0.0;0.0;17755;2021-01-16 16:14:42:936
-0.127;9.793;-0.024;0.0;0.0;0.0;17768;2021-01-16 16:14:42:949
-0.127;9.793;-0.024;0.0;0.0;0.0;17775;2021-01-16 16:14:42:956
-0.127;9.793;-0.024;0.0;0.0;0.0;17786;2021-01-16 16:14:42:967
-0.127;9.793;-0.024;0.0;0.0;0.0;17796;2021-01-16 16:14:42:977
-0.127;9.793;-0.024;0.0;0.0;0.0;17805;2021-01-16 16:14:42:986
-0.127;9.793;-0.024;0.0;0.0;0.0;17815;2021-01-16 16:14:42:996
-0.125;9.764;-0.014;0.0;0.0;0.0;17825;2021-01-16 16:14:43:006
-0.125;9.764;-0.014;0.0;0.0;0.0;17836;2021-01-16 16:14:43:017
-0.125;9.764;-0.014;0.0;0.0;0.0;17845;2021-01-16 16:14:43:026
-0.125;9.764;-0.014;0.0;0.0;0.0;17855;2021-01-16 16:14:43:036
-0.125;9.764;-0.014;0.0;0.0;0.0;17865;2021-01-16 16:14:43:046
-0.125;9.764;-0.014;0.0;0.0;0.0;17875;2021-01-16 16:14:43:056
-0.122;9.778;-0.005;0.0;0.0;0.0;17886;2021-01-16 16:14:43:067
-0.122;9.778;-0.005;0.0;0.0;0.0;17895;2021-01-16 16:14:43:076
-0.122;9.778;-0.005;0.0;0.0;0.0;17905;2021-01-16 16:14:43:086
-0.122;9.778;-0.005;0.0;0.0;0.0;17915;2021-01-16 16:14:43:096
-0.122;9.778;-0.005;0.0;0.0;0.0;17925;2021-01-16 16:14:43:106
-0.122;9.778;-0.005;0.0;0.0;0.0;17935;2021-01-16 16:14:43:116
-0.127;9.773;-0.038;0.0;0.0;0.0;17945;2021-01-16 16:14:43:126
-0.127;9.773;-0.038;0.0;0.0;0.0;17955;2021-01-16 16:14:43:136
-0.127;9.773;-0.038;0.0;0.0;0.0;17965;2021-01-16 16:14:43:146
-0.127;9.773;-0.038;0.0;0.0;0.0;17975;2021-01-16 16:14:43:156
-0.127;9.773;-0.038;0.0;0.0;0.0;17985;2021-01-16 16:14:43:166
-0.127;9.773;-0.038;0.0;0.0;0.0;17995;2021-01-16 16:14:43:176
-0.125;9.766;-0.031;0.0;0.0;0.0;18005;2021-01-16 16:14:43:186
-0.125;9.766;-0.031;0.0;0.0;0.0;18015;2021-01-16 16:14:43:196
-0.125;9.766;-0.031;0.0;0.0;0.0;18025;2021-01-16 16:14:43:206
-0.125;9.766;-0.031;0.0;0.0;0.0;18035;2021-01-16 16:14:43:216
-0.125;9.766;-0.031;0.0;0.0;0.0;18045;2021-01-16 16:14:43:226
-0.125;9.766;-0.031;0.0;0.0;0.0;18055;2021-01-16 16:14:43:236
-0.125;9.79;-0.041;0.0;0.0;0.0;18065;2021-01-16 16:14:43:246
-0.125;9.79;-0.041;0.0;0.0;0.0;18075;2021-01-16 16:14:43:256
-0.125;9.79;-0.041;0.0;0.0;0.0;18085;2021-01-16 16:14:43:266
-0.125;9.79;-0.041;0.0;0.0;0.0;18095;2021-01-16 16:14:43:276
-0.125;9.79;-0.041;0.0;0.0;0.0;18105;2021-01-16 16:14:43:286
-0.125;9.79;-0.041;0.0;0.0;0.0;18115;2021-01-16 16:14:43:296
-0.132;9.793;-0.014;0.0;0.0;0.0;18125;2021-01-16 16:14:43:306
-0.132;9.793;-0.014;0.0;0.0;0.0;18136;2021-01-16 16:14:43:317
-0.132;9.793;-0.014;0.0;0.0;0.0;18145;2021-01-16 16:14:43:326
-0.132;9.793;-0.014;0.0;0.0;0.0;18155;2021-01-16 16:14:43:336
-0.132;9.793;-0.014;0.0;0.0;0.0;18165;2021-01-16 16:14:43:346
-0.132;9.793;-0.014;0.0;0.0;0.0;18176;2021-01-16 16:14:43:357
-0.12;9.778;-0.036;0.0;0.0;0.0;18186;2021-01-16 16:14:43:367
-0.12;9.778;-0.036;0.0;0.0;0.0;18196;2021-01-16 16:14:43:377
-0.12;9.778;-0.036;0.0;0.0;0.0;18205;2021-01-16 16:14:43:386
-0.12;9.778;-0.036;0.0;0.0;0.0;18215;2021-01-16 16:14:43:396
-0.12;9.778;-0.036;0.0;0.0;0.0;18225;2021-01-16 16:14:43:406
-0.12;9.778;-0.036;0.0;0.0;0.0;18235;2021-01-16 16:14:43:416
-0.132;9.785;-0.05;0.0;0.0;0.0;18245;2021-01-16 16:14:43:426
-0.132;9.785;-0.05;0.0;0.0;0.0;18255;2021-01-16 16:14:43:436
-0.132;9.785;-0.05;0.0;0.0;0.0;18265;2021-01-16 16:14:43:446
-0.132;9.785;-0.05;0.0;0.0;0.0;18275;2021-01-16 16:14:43:456
-0.132;9.785;-0.05;0.0;0.0;0.0;18285;2021-01-16 16:14:43:466
-0.132;9.785;-0.05;0.0;0.0;0.0;18295;2021-01-16 16:14:43:476
-0.12;9.773;-0.034;0.0;0.0;0.0;18305;2021-01-16 16:14:43:486
-0.12;9.773;-0.034;0.0;0.0;0.0;18315;2021-01-16 16:14:43:496
-0.12;9.773;-0.034;0.0;0.0;0.0;18325;2021-01-16 16:14:43:506
-0.12;9.773;-0.034;0.0;0.0;0.0;18335;2021-01-16 16:14:43:516
-0.12;9.773;-0.034;0.0;0.0;0.0;18345;2021-01-16 16:14:43:526
-0.12;9.773;-0.034;0.0;0.0;0.0;18356;2021-01-16 16:14:43:537
-0.129;9.79;-0.024;0.0;0.0;0.0;18369;2021-01-16 16:14:43:550
-0.129;9.79;-0.024;0.0;0.0;0.0;18375;2021-01-16 16:14:43:556
-0.129;9.79;-0.024;0.0;0.0;0.0;18385;2021-01-16 16:14:43:566
-0.129;9.79;-0.024;0.0;0.0;0.0;18395;2021-01-16 16:14:43:576
-0.129;9.79;-0.024;0.0;0.0;0.0;18405;2021-01-16 16:14:43:586
-0.129;9.79;-0.024;0.0;0.0;0.0;18415;2021-01-16 16:14:43:596
-0.125;9.788;-0.026;0.0;0.0;0.0;18425;2021-01-16 16:14:43:606
-0.125;9.788;-0.026;0.0;0.0;0.0;18435;2021-01-16 16:14:43:616
-0.125;9.788;-0.026;0.0;0.0;0.0;18445;2021-01-16 16:14:43:626
-0.125;9.788;-0.026;0.0;0.0;0.0;18455;2021-01-16 16:14:43:636
-0.125;9.788;-0.026;0.0;0.0;0.0;18465;2021-01-16 16:14:43:646
-0.125;9.788;-0.026;0.0;0.0;0.0;18475;2021-01-16 16:14:43:656
-0.134;9.788;-0.024;0.0;0.0;0.0;18485;2021-01-16 16:14:43:666
-0.134;9.788;-0.024;0.0;0.0;0.0;18495;2021-01-16 16:14:43:676
-0.134;9.788;-0.024;0.0;0.0;0.0;18505;2021-01-16 16:14:43:686
-0.134;9.788;-0.024;0.0;0.0;0.0;18515;2021-01-16 16:14:43:696
-0.134;9.788;-0.024;0.0;0.0;0.0;18525;2021-01-16 16:14:43:706
-0.134;9.788;-0.024;0.0;0.0;0.0;18535;2021-01-16 16:14:43:716
-0.134;9.769;-0.022;0.0;0.0;0.0;18545;2021-01-16 16:14:43:726
-0.134;9.769;-0.022;0.0;0.0;0.0;18555;2021-01-16 16:14:43:736
-0.134;9.769;-0.022;0.0;0.0;0.0;18565;2021-01-16 16:14:43:746
-0.134;9.769;-0.022;0.0;0.0;0.0;18576;2021-01-16 16:14:43:757
-0.134;9.769;-0.022;0.0;0.0;0.0;18585;2021-01-16 16:14:43:766
-0.134;9.769;-0.022;0.0;0.0;0.0;18595;2021-01-16 16:14:43:776
-0.132;9.788;-0.022;0.0;0.0;0.0;18605;2021-01-16 16:14:43:786
-0.132;9.788;-0.022;0.0;0.0;0.0;18615;2021-01-16 16:14:43:796
-0.132;9.788;-0.022;0.0;0.0;0.0;18625;2021-01-16 16:14:43:806
-0.132;9.788;-0.022;0.0;0.0;0.0;18637;2021-01-16 16:14:43:818
-0.132;9.788;-0.022;0.0;0.0;0.0;18646;2021-01-16 16:14:43:827
-0.132;9.788;-0.022;0.0;0.0;0.0;18656;2021-01-16 16:14:43:837
-0.134;9.773;-0.019;0.0;0.0;0.0;18666;2021-01-16 16:14:43:847
-0.134;9.773;-0.019;0.0;0.0;0.0;18675;2021-01-16 16:14:43:856
-0.134;9.773;-0.019;0.0;0.0;0.0;18685;2021-01-16 16:14:43:866
-0.134;9.773;-0.019;0.0;0.0;0.0;18695;2021-01-16 16:14:43:876
-0.134;9.773;-0.019;0.0;0.0;0.0;18705;2021-01-16 16:14:43:886
-0.134;9.773;-0.019;0.0;0.0;0.0;18715;2021-01-16 16:14:43:896
-0.125;9.773;-0.026;0.0;0.0;0.0;18725;2021-01-16 16:14:43:906
-0.125;9.773;-0.026;0.0;0.0;0.0;18735;2021-01-16 16:14:43:916
-0.125;9.773;-0.026;0.0;0.0;0.0;18745;2021-01-16 16:14:43:926
-0.125;9.773;-0.026;0.0;0.0;0.0;18755;2021-01-16 16:14:43:936
-0.125;9.773;-0.026;0.0;0.0;0.0;18765;2021-01-16 16:14:43:946
-0.125;9.773;-0.026;0.0;0.0;0.0;18775;2021-01-16 16:14:43:956
-0.132;9.783;-0.036;0.0;0.0;0.0;18786;2021-01-16 16:14:43:967
-0.132;9.783;-0.036;0.0;0.0;0.0;18796;2021-01-16 16:14:43:977
-0.132;9.783;-0.036;0.0;0.0;0.0;18805;2021-01-16 16:14:43:986
-0.132;9.783;-0.036;0.0;0.0;0.0;18815;2021-01-16 16:14:43:996
-0.132;9.783;-0.036;0.0;0.0;0.0;18826;2021-01-16 16:14:44:007
-0.132;9.783;-0.036;0.0;0.0;0.0;18835;2021-01-16 16:14:44:016
-0.129;9.776;-0.06;0.0;0.0;0.0;18845;2021-01-16 16:14:44:026
-0.129;9.776;-0.06;0.0;0.0;0.0;18856;2021-01-16 16:14:44:037
-0.129;9.776;-0.06;0.0;0.0;0.0;18869;2021-01-16 16:14:44:050
-0.129;9.776;-0.06;0.0;0.0;0.0;18875;2021-01-16 16:14:44:056
-0.129;9.776;-0.06;0.0;0.0;0.0;18886;2021-01-16 16:14:44:067
-0.129;9.776;-0.06;0.0;0.0;0.0;18895;2021-01-16 16:14:44:076
-0.12;9.797;-0.041;0.0;0.0;0.0;18905;2021-01-16 16:14:44:086
-0.12;9.797;-0.041;0.0;0.0;0.0;18915;2021-01-16 16:14:44:096
-0.12;9.797;-0.041;0.0;0.0;0.0;18925;2021-01-16 16:14:44:106
-0.12;9.797;-0.041;0.0;0.0;0.0;18935;2021-01-16 16:14:44:116
-0.12;9.797;-0.041;0.0;-0.001;0.0;18945;2021-01-16 16:14:44:126
-0.12;9.797;-0.041;0.0;-0.001;0.0;18959;2021-01-16 16:14:44:140
-0.129;9.79;-0.026;0.0;-0.001;0.0;18965;2021-01-16 16:14:44:146
-0.129;9.79;-0.026;0.0;-0.001;0.0;18975;2021-01-16 16:14:44:156
-0.129;9.79;-0.026;0.0;-0.001;0.0;18985;2021-01-16 16:14:44:166
-0.129;9.79;-0.026;0.0;-0.001;0.0;18995;2021-01-16 16:14:44:176
-0.129;9.79;-0.026;0.0;-0.001;0.0;19005;2021-01-16 16:14:44:186
-0.129;9.79;-0.026;0.0;-0.001;0.0;19017;2021-01-16 16:14:44:198
-0.11;9.809;-0.031;0.0;-0.001;0.0;19037;2021-01-16 16:14:44:218
-0.11;9.809;-0.031;0.0;-0.001;0.0;19038;2021-01-16 16:14:44:219
-0.11;9.809;-0.031;0.0;-0.001;0.0;19045;2021-01-16 16:14:44:226
-0.11;9.809;-0.031;0.0;-0.001;0.0;19056;2021-01-16 16:14:44:237
-0.11;9.809;-0.031;0.0;-0.001;0.0;19065;2021-01-16 16:14:44:246
-0.11;9.809;-0.031;0.0;-0.001;0.0;19077;2021-01-16 16:14:44:258
-0.127;9.769;-0.022;0.0;-0.001;0.0;19085;2021-01-16 16:14:44:266
-0.127;9.769;-0.022;0.0;-0.001;0.0;19095;2021-01-16 16:14:44:276
-0.127;9.769;-0.022;0.0;-0.001;0.0;19109;2021-01-16 16:14:44:290
-0.127;9.769;-0.022;0.0;-0.001;0.0;19115;2021-01-16 16:14:44:296
-0.127;9.769;-0.022;0.0;-0.001;0.0;19125;2021-01-16 16:14:44:306
-0.127;9.769;-0.022;0.0;-0.001;0.0;19136;2021-01-16 16:14:44:317
-0.132;9.773;-0.045;0.0;-0.001;0.0;19145;2021-01-16 16:14:44:326
-0.132;9.773;-0.045;0.0;-0.001;0.0;19156;2021-01-16 16:14:44:337
-0.132;9.773;-0.045;0.0;-0.001;0.0;19166;2021-01-16 16:14:44:347
-0.132;9.773;-0.045;0.0;-0.001;0.0;19175;2021-01-16 16:14:44:356
-0.132;9.773;-0.045;0.0;-0.001;0.0;19188;2021-01-16 16:14:44:369
-0.132;9.773;-0.045;0.0;-0.001;0.0;19196;2021-01-16 16:14:44:377
-0.141;9.8;-0.026;0.0;-0.001;0.0;19206;2021-01-16 16:14:44:387
-0.141;9.8;-0.026;0.0;-0.001;0.0;19215;2021-01-16 16:14:44:396
-0.141;9.8;-0.026;0.0;-0.001;0.0;19225;2021-01-16 16:14:44:406
-0.141;9.8;-0.026;0.0;-0.001;0.0;19235;2021-01-16 16:14:44:416
-0.141;9.8;-0.026;0.0;-0.001;0.0;19246;2021-01-16 16:14:44:427
-0.141;9.8;-0.026;0.0;-0.001;0.0;19255;2021-01-16 16:14:44:436
-0.144;9.781;-0.038;0.0;-0.001;0.0;19265;2021-01-16 16:14:44:446
-0.144;9.781;-0.038;0.0;-0.001;0.0;19275;2021-01-16 16:14:44:456
-0.144;9.781;-0.038;0.0;-0.001;0.0;19285;2021-01-16 16:14:44:466
-0.144;9.781;-0.038;0.0;-0.001;0.0;19296;2021-01-16 16:14:44:477
-0.144;9.781;-0.038;0.0;0.0;0.0;19306;2021-01-16 16:14:44:487
-0.144;9.781;-0.038;0.0;0.0;0.0;19315;2021-01-16 16:14:44:496
-0.129;9.783;-0.05;0.0;0.0;0.0;19325;2021-01-16 16:14:44:506
-0.129;9.783;-0.05;0.0;0.0;0.0;19335;2021-01-16 16:14:44:516
-0.129;9.783;-0.05;0.0;0.0;0.0;19346;2021-01-16 16:14:44:527
-0.129;9.783;-0.05;0.0;0.0;0.0;19355;2021-01-16 16:14:44:536
-0.129;9.783;-0.05;0.0;0.0;0.0;19365;2021-01-16 16:14:44:546
-0.129;9.783;-0.05;0.0;0.0;0.0;19375;2021-01-16 16:14:44:556
-0.141;9.771;-0.041;0.0;0.0;0.0;19385;2021-01-16 16:14:44:566
-0.141;9.771;-0.041;0.0;0.0;0.0;19397;2021-01-16 16:14:44:578
-0.141;9.771;-0.041;0.0;0.0;0.0;19405;2021-01-16 16:14:44:586
-0.141;9.771;-0.041;0.0;0.0;0.0;19417;2021-01-16 16:14:44:598
-0.141;9.771;-0.041;0.0;-0.001;0.0;19426;2021-01-16 16:14:44:607
-0.141;9.771;-0.041;0.0;-0.001;0.0;19435;2021-01-16 16:14:44:616
-0.139;9.778;-0.029;0.0;-0.001;0.0;19445;2021-01-16 16:14:44:626
-0.139;9.778;-0.029;0.0;-0.001;0.0;19455;2021-01-16 16:14:44:636
-0.139;9.778;-0.029;0.0;-0.001;0.0;19465;2021-01-16 16:14:44:646
-0.139;9.778;-0.029;0.0;-0.001;0.0;19475;2021-01-16 16:14:44:656
-0.139;9.778;-0.029;0.0;-0.001;0.0;19486;2021-01-16 16:14:44:667
-0.139;9.778;-0.029;0.0;-0.001;0.0;19495;2021-01-16 16:14:44:676
-0.115;9.79;-0.026;0.0;-0.001;0.0;19511;2021-01-16 16:14:44:692
-0.115;9.79;-0.026;0.0;-0.001;0.0;19515;2021-01-16 16:14:44:696
-0.115;9.79;-0.026;0.0;-0.001;0.0;19526;2021-01-16 16:14:44:707
-0.115;9.79;-0.026;0.0;-0.001;0.0;19535;2021-01-16 16:14:44:716
