sep=;
ACCELEROMETER X (m/s²);ACCELEROMETER Y (m/s²);ACCELEROMETER Z (m/s²);GYROSCOPE X (rad/s);GYROSCOPE Y (rad/s);GYROSCOPE Z (rad/s);Time since start in ms ;YYYY-MO-DD HH-MI-SS_SSS
0.122;-9.795;-0.127;0.0;0.001;0.0;18;2021-01-16 16:15:23:117
0.125;-9.793;-0.148;0.0;0.001;0.0;28;2021-01-16 16:15:23:127
0.125;-9.793;-0.148;0.0;0.001;0.0;39;2021-01-16 16:15:23:138
0.125;-9.793;-0.148;0.0;0.001;0.0;50;2021-01-16 16:15:23:149
0.125;-9.793;-0.148;0.0;0.001;0.0;59;2021-01-16 16:15:23:158
0.125;-9.793;-0.148;0.0;0.001;0.0;68;2021-01-16 16:15:23:167
0.125;-9.793;-0.148;0.0;0.001;0.0;79;2021-01-16 16:15:23:178
0.125;-9.783;-0.134;0.0;0.0;0.0;92;2021-01-16 16:15:23:191
0.125;-9.783;-0.134;0.0;0.0;0.0;98;2021-01-16 16:15:23:197
0.125;-9.783;-0.134;0.0;0.0;0.0;108;2021-01-16 16:15:23:207
0.125;-9.783;-0.134;0.0;0.0;0.0;119;2021-01-16 16:15:23:218
0.125;-9.783;-0.134;0.0;0.0;0.0;128;2021-01-16 16:15:23:227
0.125;-9.783;-0.134;0.0;0.0;0.0;138;2021-01-16 16:15:23:237
0.105;-9.788;-0.122;0.0;0.0;0.0;148;2021-01-16 16:15:23:247
0.105;-9.788;-0.122;0.0;0.0;0.0;158;2021-01-16 16:15:23:257
0.105;-9.788;-0.122;0.0;0.0;0.0;169;2021-01-16 16:15:23:268
0.105;-9.788;-0.122;0.0;0.0;0.0;179;2021-01-16 16:15:23:278
0.105;-9.788;-0.122;0.0;0.0;0.0;188;2021-01-16 16:15:23:287
0.105;-9.788;-0.122;0.0;0.0;0.0;198;2021-01-16 16:15:23:297
0.12;-9.778;-0.134;0.001;0.0;0.0;214;2021-01-16 16:15:23:313
0.12;-9.778;-0.134;0.001;0.0;0.0;218;2021-01-16 16:15:23:317
0.12;-9.778;-0.134;0.001;0.0;0.0;229;2021-01-16 16:15:23:328
0.12;-9.778;-0.134;0.001;0.0;0.0;238;2021-01-16 16:15:23:337
0.12;-9.778;-0.134;0.001;0.0;0.0;249;2021-01-16 16:15:23:348
0.12;-9.778;-0.134;0.001;0.0;0.0;258;2021-01-16 16:15:23:357
0.117;-9.788;-0.127;0.001;0.0;0.0;273;2021-01-16 16:15:23:372
0.117;-9.788;-0.127;0.001;0.0;0.0;278;2021-01-16 16:15:23:377
0.117;-9.788;-0.127;0.001;0.0;0.0;288;2021-01-16 16:15:23:387
0.117;-9.788;-0.127;0.001;0.0;0.0;298;2021-01-16 16:15:23:397
0.117;-9.788;-0.127;0.001;0.0;0.0;311;2021-01-16 16:15:23:410
0.117;-9.788;-0.127;0.001;0.0;0.0;318;2021-01-16 16:15:23:417
0.117;-9.788;-0.127;0.0;0.0;0.0;328;2021-01-16 16:15:23:427
0.117;-9.788;-0.127;0.0;0.0;0.0;338;2021-01-16 16:15:23:437
0.117;-9.788;-0.127;0.0;0.0;0.0;348;2021-01-16 16:15:23:447
0.117;-9.788;-0.127;0.0;0.0;0.0;358;2021-01-16 16:15:23:457
0.117;-9.788;-0.127;0.0;0.0;0.0;368;2021-01-16 16:15:23:467
0.117;-9.788;-0.127;0.0;0.0;0.0;378;2021-01-16 16:15:23:477
0.129;-9.773;-0.144;0.0;0.0;0.0;388;2021-01-16 16:15:23:487
0.129;-9.773;-0.144;0.0;0.0;0.0;398;2021-01-16 16:15:23:497
0.129;-9.773;-0.144;0.0;0.0;0.0;420;2021-01-16 16:15:23:519
0.129;-9.773;-0.144;0.0;0.0;0.0;420;2021-01-16 16:15:23:519
0.129;-9.773;-0.144;0.0;0.0;0.0;433;2021-01-16 16:15:23:532
0.129;-9.773;-0.144;0.0;0.0;0.0;438;2021-01-16 16:15:23:537
0.122;-9.781;-0.129;0.0;0.0;0.0;448;2021-01-16 16:15:23:547
0.122;-9.781;-0.129;0.0;0.0;0.0;458;2021-01-16 16:15:23:557
0.122;-9.781;-0.129;0.0;0.0;0.0;468;2021-01-16 16:15:23:567
0.122;-9.781;-0.129;0.0;0.0;0.0;478;2021-01-16 16:15:23:577
0.122;-9.781;-0.129;0.0;0.0;0.0;489;2021-01-16 16:15:23:588
0.122;-9.781;-0.129;0.0;0.0;0.0;501;2021-01-16 16:15:23:600
0.125;-9.795;-0.144;0.0;0.0;0.0;509;2021-01-16 16:15:23:608
0.125;-9.795;-0.144;0.0;0.0;0.0;518;2021-01-16 16:15:23:617
0.125;-9.795;-0.144;0.0;0.0;0.0;528;2021-01-16 16:15:23:627
0.125;-9.795;-0.144;0.0;0.0;0.0;538;2021-01-16 16:15:23:637
0.125;-9.795;-0.144;0.0;0.0;0.0;548;2021-01-16 16:15:23:647
0.125;-9.795;-0.144;0.0;0.0;0.0;559;2021-01-16 16:15:23:658
0.129;-9.79;-0.148;0.0;0.0;0.0;568;2021-01-16 16:15:23:667
0.129;-9.79;-0.148;0.0;0.0;0.0;578;2021-01-16 16:15:23:677
0.129;-9.79;-0.148;0.0;0.0;0.0;588;2021-01-16 16:15:23:687
0.129;-9.79;-0.148;0.0;0.0;0.0;598;2021-01-16 16:15:23:697
0.129;-9.79;-0.148;0.0;0.0;0.0;609;2021-01-16 16:15:23:708
0.129;-9.79;-0.148;0.0;0.0;0.0;619;2021-01-16 16:15:23:718
0.136;-9.795;-0.129;0.0;0.0;0.0;628;2021-01-16 16:15:23:727
0.136;-9.795;-0.129;0.0;0.0;0.0;643;2021-01-16 16:15:23:742
0.136;-9.795;-0.129;0.0;0.0;0.0;648;2021-01-16 16:15:23:747
0.136;-9.795;-0.129;0.0;0.0;0.0;658;2021-01-16 16:15:23:757
0.136;-9.795;-0.129;0.0;0.0;0.0;668;2021-01-16 16:15:23:767
0.136;-9.795;-0.129;0.0;0.0;0.0;679;2021-01-16 16:15:23:778
0.125;-9.783;-0.139;0.0;0.0;0.0;689;2021-01-16 16:15:23:788
0.125;-9.783;-0.139;0.0;0.0;0.0;698;2021-01-16 16:15:23:797
0.125;-9.783;-0.139;0.0;0.0;0.0;711;2021-01-16 16:15:23:810
0.125;-9.783;-0.139;0.0;0.0;0.0;719;2021-01-16 16:15:23:818
0.125;-9.783;-0.139;0.0;0.0;0.0;728;2021-01-16 16:15:23:827
0.125;-9.783;-0.139;0.0;0.0;0.0;738;2021-01-16 16:15:23:837
0.134;-9.793;-0.146;0.0;0.0;0.0;749;2021-01-16 16:15:23:848
0.134;-9.793;-0.146;0.0;0.0;0.0;758;2021-01-16 16:15:23:857
0.134;-9.793;-0.146;0.0;0.0;0.0;768;2021-01-16 16:15:23:867
0.134;-9.793;-0.146;0.0;0.0;0.0;778;2021-01-16 16:15:23:877
0.134;-9.793;-0.146;0.0;0.0;0.0;788;2021-01-16 16:15:23:887
0.134;-9.793;-0.146;0.0;0.0;0.0;800;2021-01-16 16:15:23:899
0.11;-9.8;-0.134;0.0;0.0;0.0;808;2021-01-16 16:15:23:907
0.11;-9.8;-0.134;0.0;0.0;0.0;818;2021-01-16 16:15:23:917
0.11;-9.8;-0.134;0.0;0.0;0.0;829;2021-01-16 16:15:23:928
0.11;-9.8;-0.134;0.0;0.0;0.0;839;2021-01-16 16:15:23:938
0.11;-9.8;-0.134;0.0;0.0;0.0;848;2021-01-16 16:15:23:947
0.11;-9.8;-0.134;0.0;0.0;0.0;859;2021-01-16 16:15:23:958
0.132;-9.788;-0.125;0.0;0.0;0.0;868;2021-01-16 16:15:23:967
0.132;-9.788;-0.125;0.0;0.0;0.0;878;2021-01-16 16:15:23:977
0.132;-9.788;-0.125;0.0;0.0;0.0;889;2021-01-16 16:15:23:988
0.132;-9.788;-0.125;0.0;0.0;0.0;901;2021-01-16 16:15:24:000
0.132;-9.788;-0.125;0.0;0.0;0.0;908;2021-01-16 16:15:24:007
0.132;-9.788;-0.125;0.0;0.0;0.0;919;2021-01-16 16:15:24:018
0.125;-9.797;-0.125;0.001;0.0;0.0;928;2021-01-16 16:15:24:027
0.125;-9.797;-0.125;0.001;0.0;0.0;938;2021-01-16 16:15:24:037
0.125;-9.797;-0.125;0.001;0.0;0.0;952;2021-01-16 16:15:24:051
0.125;-9.797;-0.125;0.001;0.0;0.0;958;2021-01-16 16:15:24:057
0.125;-9.797;-0.125;0.001;0.0;0.0;968;2021-01-16 16:15:24:067
0.125;-9.797;-0.125;0.001;0.0;0.0;983;2021-01-16 16:15:24:082
0.129;-9.793;-0.141;0.001;0.0;0.0;992;2021-01-16 16:15:24:091
0.129;-9.793;-0.141;0.001;0.0;0.0;998;2021-01-16 16:15:24:097
0.129;-9.793;-0.141;0.001;0.0;0.0;1008;2021-01-16 16:15:24:107
0.129;-9.793;-0.141;0.001;0.0;0.0;1019;2021-01-16 16:15:24:118
0.129;-9.793;-0.141;0.001;0.0;0.0;1028;2021-01-16 16:15:24:127
0.129;-9.793;-0.141;0.001;0.0;0.0;1039;2021-01-16 16:15:24:138
0.125;-9.776;-0.136;0.0;0.0;0.0;1048;2021-01-16 16:15:24:147
0.125;-9.776;-0.136;0.0;0.0;0.0;1058;2021-01-16 16:15:24:157
0.125;-9.776;-0.136;0.0;0.0;0.0;1069;2021-01-16 16:15:24:168
0.125;-9.776;-0.136;0.0;0.0;0.0;1079;2021-01-16 16:15:24:178
0.125;-9.776;-0.136;0.0;0.0;0.0;1088;2021-01-16 16:15:24:187
0.125;-9.776;-0.136;0.0;0.0;0.0;1098;2021-01-16 16:15:24:197
0.115;-9.797;-0.127;0.0;0.0;0.0;1108;2021-01-16 16:15:24:207
0.115;-9.797;-0.127;0.0;0.0;0.0;1118;2021-01-16 16:15:24:217
0.115;-9.797;-0.127;0.0;0.0;0.0;1128;2021-01-16 16:15:24:227
0.115;-9.797;-0.127;0.0;0.0;0.0;1138;2021-01-16 16:15:24:237
0.115;-9.797;-0.127;0.0;0.0;0.0;1149;2021-01-16 16:15:24:248
0.115;-9.797;-0.127;0.0;0.0;0.0;1158;2021-01-16 16:15:24:257
0.127;-9.776;-0.122;0.0;0.0;0.0;1168;2021-01-16 16:15:24:267
0.127;-9.776;-0.122;0.0;0.0;0.0;1179;2021-01-16 16:15:24:278
0.127;-9.776;-0.122;0.0;0.0;0.0;1189;2021-01-16 16:15:24:288
0.127;-9.776;-0.122;0.0;0.0;0.0;1198;2021-01-16 16:15:24:297
0.127;-9.776;-0.122;0.0;0.0;0.0;1209;2021-01-16 16:15:24:308
0.127;-9.776;-0.122;0.0;0.0;0.0;1218;2021-01-16 16:15:24:317
0.12;-9.797;-0.115;0.0;0.0;0.0;1229;2021-01-16 16:15:24:328
0.12;-9.797;-0.115;0.0;0.0;0.0;1238;2021-01-16 16:15:24:337
0.12;-9.797;-0.115;0.0;0.0;0.0;1249;2021-01-16 16:15:24:348
0.12;-9.797;-0.115;0.0;0.0;0.0;1264;2021-01-16 16:15:24:363
0.12;-9.797;-0.115;0.0;0.0;0.0;1270;2021-01-16 16:15:24:369
0.12;-9.797;-0.115;0.0;0.0;0.0;1278;2021-01-16 16:15:24:377
0.127;-9.783;-0.132;0.0;-0.001;0.0;1292;2021-01-16 16:15:24:391
0.127;-9.783;-0.132;0.0;-0.001;0.0;1299;2021-01-16 16:15:24:398
0.127;-9.783;-0.132;0.0;-0.001;0.0;1309;2021-01-16 16:15:24:408
0.127;-9.783;-0.132;0.0;-0.001;0.0;1319;2021-01-16 16:15:24:418
0.127;-9.783;-0.132;0.0;-0.001;0.0;1329;2021-01-16 16:15:24:428
0.127;-9.783;-0.132;0.0;-0.001;0.0;1338;2021-01-16 16:15:24:437
0.096;-9.788;-0.146;0.0;-0.001;0.0;1348;2021-01-16 16:15:24:447
0.096;-9.788;-0.146;0.0;-0.001;0.0;1358;2021-01-16 16:15:24:457
0.096;-9.788;-0.146;0.0;-0.001;0.0;1370;2021-01-16 16:15:24:469
0.096;-9.788;-0.146;0.0;-0.001;0.0;1378;2021-01-16 16:15:24:477
0.096;-9.788;-0.146;0.0;-0.001;0.0;1388;2021-01-16 16:15:24:487
0.096;-9.788;-0.146;0.0;-0.001;0.0;1400;2021-01-16 16:15:24:499
0.129;-9.797;-0.136;0.0;0.0;0.0;1409;2021-01-16 16:15:24:508
0.129;-9.797;-0.136;0.0;0.0;0.0;1418;2021-01-16 16:15:24:517
0.129;-9.797;-0.136;0.0;0.0;0.0;1431;2021-01-16 16:15:24:530
0.129;-9.797;-0.136;0.0;0.0;0.0;1438;2021-01-16 16:15:24:537
0.129;-9.797;-0.136;0.0;0.0;0.0;1448;2021-01-16 16:15:24:547
0.129;-9.797;-0.136;0.0;0.0;0.0;1458;2021-01-16 16:15:24:557
0.122;-9.797;-0.132;0.0;0.0;0.0;1470;2021-01-16 16:15:24:569
0.122;-9.797;-0.132;0.0;0.0;0.0;1479;2021-01-16 16:15:24:578
0.122;-9.797;-0.132;0.0;0.0;0.0;1490;2021-01-16 16:15:24:589
0.122;-9.797;-0.132;0.0;0.0;0.0;1503;2021-01-16 16:15:24:602
0.122;-9.797;-0.132;0.0;0.0;0.0;1508;2021-01-16 16:15:24:607
0.122;-9.797;-0.132;0.0;0.0;0.0;1518;2021-01-16 16:15:24:617
0.134;-9.797;-0.146;0.0;0.0;0.0;1528;2021-01-16 16:15:24:627
0.134;-9.797;-0.146;0.0;0.0;0.0;1539;2021-01-16 16:15:24:638
0.134;-9.797;-0.146;0.0;0.0;0.0;1548;2021-01-16 16:15:24:647
0.134;-9.797;-0.146;0.0;0.0;0.0;1558;2021-01-16 16:15:24:657
0.134;-9.797;-0.146;0.0;0.0;0.0;1568;2021-01-16 16:15:24:667
0.134;-9.797;-0.146;0.0;0.0;0.0;1581;2021-01-16 16:15:24:680
0.125;-9.812;-0.144;0.0;0.0;0.0;1589;2021-01-16 16:15:24:688
0.125;-9.812;-0.144;0.0;0.0;0.0;1598;2021-01-16 16:15:24:697
0.125;-9.812;-0.144;0.0;0.0;0.0;1608;2021-01-16 16:15:24:707
0.125;-9.812;-0.144;0.0;0.0;0.0;1619;2021-01-16 16:15:24:718
0.125;-9.812;-0.144;0.0;0.0;0.0;1628;2021-01-16 16:15:24:727
0.125;-9.812;-0.144;0.0;0.0;0.0;1638;2021-01-16 16:15:24:737
0.117;-9.778;-0.134;0.0;0.0;0.0;1653;2021-01-16 16:15:24:752
0.117;-9.778;-0.134;0.0;0.0;0.0;1658;2021-01-16 16:15:24:757
0.117;-9.778;-0.134;0.0;0.0;0.0;1668;2021-01-16 16:15:24:767
0.117;-9.778;-0.134;0.0;0.0;0.0;1678;2021-01-16 16:15:24:777
0.117;-9.778;-0.134;0.0;0.0;0.0;1688;2021-01-16 16:15:24:787
0.117;-9.778;-0.134;0.0;0.0;0.0;1698;2021-01-16 16:15:24:797
0.125;-9.79;-0.139;0.0;0.0;0.0;1709;2021-01-16 16:15:24:808
0.125;-9.79;-0.139;0.0;0.0;0.0;1718;2021-01-16 16:15:24:817
0.125;-9.79;-0.139;0.0;0.0;0.0;1730;2021-01-16 16:15:24:829
0.125;-9.79;-0.139;0.0;0.0;0.0;1738;2021-01-16 16:15:24:837
0.125;-9.79;-0.139;0.0;0.0;0.0;1748;2021-01-16 16:15:24:847
0.125;-9.79;-0.139;0.0;0.0;0.0;1758;2021-01-16 16:15:24:857
0.134;-9.79;-0.141;0.0;0.0;0.0;1774;2021-01-16 16:15:24:873
0.134;-9.79;-0.141;0.0;0.0;0.0;1780;2021-01-16 16:15:24:879
0.134;-9.79;-0.141;0.0;0.0;0.0;1789;2021-01-16 16:15:24:888
0.134;-9.79;-0.141;0.0;0.0;0.0;1798;2021-01-16 16:15:24:897
0.134;-9.79;-0.141;0.0;0.0;0.0;1808;2021-01-16 16:15:24:907
0.134;-9.79;-0.141;0.0;0.0;0.0;1818;2021-01-16 16:15:24:917
0.127;-9.781;-0.129;0.0;0.0;0.0;1828;2021-01-16 16:15:24:927
0.127;-9.781;-0.129;0.0;0.0;0.0;1838;2021-01-16 16:15:24:937
0.127;-9.781;-0.129;0.0;0.0;0.0;1848;2021-01-16 16:15:24:947
0.127;-9.781;-0.129;0.0;0.0;0.0;1858;2021-01-16 16:15:24:957
0.127;-9.781;-0.129;0.0;0.0;0.0;1868;2021-01-16 16:15:24:967
0.127;-9.781;-0.129;0.0;0.0;0.0;1878;2021-01-16 16:15:24:977
0.117;-9.797;-0.151;0.001;0.0;0.0;1889;2021-01-16 16:15:24:988
0.117;-9.797;-0.151;0.001;0.0;0.0;1898;2021-01-16 16:15:24:997
0.117;-9.797;-0.151;0.001;0.0;0.0;1909;2021-01-16 16:15:25:008
0.117;-9.797;-0.151;0.001;0.0;0.0;1918;2021-01-16 16:15:25:017
0.117;-9.797;-0.151;0.001;0.0;0.0;1929;2021-01-16 16:15:25:028
0.117;-9.797;-0.151;0.001;0.0;0.0;1938;2021-01-16 16:15:25:037
0.105;-9.783;-0.132;0.001;0.0;0.0;1948;2021-01-16 16:15:25:047
0.105;-9.783;-0.132;0.001;0.0;0.0;1958;2021-01-16 16:15:25:057
0.105;-9.783;-0.132;0.001;0.0;0.0;1968;2021-01-16 16:15:25:067
0.105;-9.783;-0.132;0.001;0.0;0.0;1978;2021-01-16 16:15:25:077
0.105;-9.783;-0.132;0.001;0.0;0.0;1989;2021-01-16 16:15:25:088
0.105;-9.783;-0.132;0.001;0.0;0.0;1998;2021-01-16 16:15:25:097
0.127;-9.8;-0.136;0.0;0.0;0.0;2014;2021-01-16 16:15:25:113
0.127;-9.8;-0.136;0.0;0.0;0.0;2018;2021-01-16 16:15:25:117
0.127;-9.8;-0.136;0.0;0.0;0.0;2030;2021-01-16 16:15:25:129
0.127;-9.8;-0.136;0.0;0.0;0.0;2038;2021-01-16 16:15:25:137
0.127;-9.8;-0.136;0.0;0.0;0.0;2048;2021-01-16 16:15:25:147
0.127;-9.8;-0.136;0.0;0.0;0.0;2058;2021-01-16 16:15:25:157
0.113;-9.788;-0.136;0.0;0.0;0.0;2069;2021-01-16 16:15:25:168
0.113;-9.788;-0.136;0.0;0.0;0.0;2078;2021-01-16 16:15:25:177
0.113;-9.788;-0.136;0.0;0.0;0.0;2088;2021-01-16 16:15:25:187
0.113;-9.788;-0.136;0.0;0.0;0.0;2098;2021-01-16 16:15:25:197
0.113;-9.788;-0.136;0.0;0.0;0.0;2108;2021-01-16 16:15:25:207
0.113;-9.788;-0.136;0.0;0.0;0.0;2119;2021-01-16 16:15:25:218
0.12;-9.79;-0.134;0.0;0.001;0.0;2132;2021-01-16 16:15:25:231
0.12;-9.79;-0.134;0.0;0.001;0.0;2138;2021-01-16 16:15:25:237
0.12;-9.79;-0.134;0.0;0.001;0.0;2148;2021-01-16 16:15:25:247
0.12;-9.79;-0.134;0.0;0.001;0.0;2158;2021-01-16 16:15:25:257
0.12;-9.79;-0.134;0.0;0.001;0.0;2169;2021-01-16 16:15:25:268
0.12;-9.79;-0.134;0.0;0.001;0.0;2179;2021-01-16 16:15:25:278
0.12;-9.79;-0.156;0.0;0.001;0.0;2190;2021-01-16 16:15:25:289
0.12;-9.79;-0.156;0.0;0.001;0.0;2212;2021-01-16 16:15:25:311
0.12;-9.79;-0.156;0.0;0.001;0.0;2213;2021-01-16 16:15:25:312
0.12;-9.79;-0.156;0.0;0.001;0.0;2219;2021-01-16 16:15:25:318
0.12;-9.79;-0.156;0.0;0.001;0.0;2228;2021-01-16 16:15:25:327
0.12;-9.79;-0.156;0.0;0.001;0.0;2238;2021-01-16 16:15:25:337
0.122;-9.793;-0.148;0.001;0.0;0.0;2248;2021-01-16 16:15:25:347
0.122;-9.793;-0.148;0.001;0.0;0.0;2258;2021-01-16 16:15:25:357
0.122;-9.793;-0.148;0.001;0.0;0.0;2268;2021-01-16 16:15:25:367
0.122;-9.793;-0.148;0.001;0.0;0.0;2278;2021-01-16 16:15:25:377
0.122;-9.793;-0.148;0.001;0.0;0.0;2288;2021-01-16 16:15:25:387
0.122;-9.793;-0.148;0.001;0.0;0.0;2299;2021-01-16 16:15:25:398
0.132;-9.79;-0.156;0.001;0.0;0.0;2308;2021-01-16 16:15:25:407
0.132;-9.79;-0.156;0.001;0.0;0.0;2318;2021-01-16 16:15:25:417
0.132;-9.79;-0.156;0.001;0.0;0.0;2329;2021-01-16 16:15:25:428
0.132;-9.79;-0.156;0.001;0.0;0.0;2339;2021-01-16 16:15:25:438
0.132;-9.79;-0.156;0.001;0.0;0.0;2351;2021-01-16 16:15:25:450
0.132;-9.79;-0.156;0.001;0.0;0.0;2367;2021-01-16 16:15:25:466
0.122;-9.79;-0.117;0.0;0.0;0.0;2368;2021-01-16 16:15:25:467
0.122;-9.79;-0.117;0.0;0.0;0.0;2378;2021-01-16 16:15:25:477
0.122;-9.79;-0.117;0.0;0.0;0.0;2390;2021-01-16 16:15:25:489
0.122;-9.79;-0.117;0.0;0.0;0.0;2398;2021-01-16 16:15:25:497
0.122;-9.79;-0.117;0.0;0.0;0.0;2408;2021-01-16 16:15:25:507
0.122;-9.79;-0.117;0.0;0.0;0.0;2419;2021-01-16 16:15:25:518
0.129;-9.781;-0.139;0.0;0.0;0.0;2430;2021-01-16 16:15:25:529
0.129;-9.781;-0.139;0.0;0.0;0.0;2439;2021-01-16 16:15:25:538
0.129;-9.781;-0.139;0.0;0.0;0.0;2449;2021-01-16 16:15:25:548
0.129;-9.781;-0.139;0.0;0.0;0.0;2459;2021-01-16 16:15:25:558
0.129;-9.781;-0.139;0.0;0.0;0.0;2468;2021-01-16 16:15:25:567
0.129;-9.781;-0.139;0.0;0.0;0.0;2478;2021-01-16 16:15:25:577
0.132;-9.783;-0.144;0.0;-0.001;0.0;2494;2021-01-16 16:15:25:593
0.132;-9.783;-0.144;0.0;-0.001;0.0;2500;2021-01-16 16:15:25:599
0.132;-9.783;-0.144;0.0;-0.001;0.0;2508;2021-01-16 16:15:25:607
0.132;-9.783;-0.144;0.0;-0.001;0.0;2519;2021-01-16 16:15:25:618
0.132;-9.783;-0.144;0.0;-0.001;0.0;2528;2021-01-16 16:15:25:627
0.132;-9.783;-0.144;0.0;-0.001;0.0;2539;2021-01-16 16:15:25:638
0.108;-9.781;-0.139;0.0;-0.001;0.0;2549;2021-01-16 16:15:25:648
0.108;-9.781;-0.139;0.0;-0.001;0.0;2558;2021-01-16 16:15:25:657
0.108;-9.781;-0.139;0.0;-0.001;0.0;2569;2021-01-16 16:15:25:668
0.108;-9.781;-0.139;0.0;-0.001;0.0;2579;2021-01-16 16:15:25:678
0.108;-9.781;-0.139;0.0;-0.001;0.0;2588;2021-01-16 16:15:25:687
0.108;-9.781;-0.139;0.0;-0.001;0.0;2599;2021-01-16 16:15:25:698
0.129;-9.793;-0.151;0.0;0.0;0.0;2608;2021-01-16 16:15:25:707
0.129;-9.793;-0.151;0.0;0.0;0.0;2618;2021-01-16 16:15:25:717
0.129;-9.793;-0.151;0.0;0.0;0.0;2629;2021-01-16 16:15:25:728
0.129;-9.793;-0.151;0.0;0.0;0.0;2638;2021-01-16 16:15:25:737
0.129;-9.793;-0.151;0.0;0.0;0.0;2648;2021-01-16 16:15:25:747
0.129;-9.793;-0.151;0.0;0.0;0.0;2659;2021-01-16 16:15:25:758
0.134;-9.8;-0.141;0.0;0.0;0.0;2668;2021-01-16 16:15:25:767
0.134;-9.8;-0.141;0.0;0.0;0.0;2678;2021-01-16 16:15:25:777
0.134;-9.8;-0.141;0.0;0.0;0.0;2689;2021-01-16 16:15:25:788
0.134;-9.8;-0.141;0.0;0.0;0.0;2698;2021-01-16 16:15:25:797
0.134;-9.8;-0.141;0.0;0.0;0.0;2708;2021-01-16 16:15:25:807
0.134;-9.8;-0.141;0.0;0.0;0.0;2718;2021-01-16 16:15:25:817
0.12;-9.793;-0.146;0.0;0.0;0.0;2729;2021-01-16 16:15:25:828
0.12;-9.793;-0.146;0.0;0.0;0.0;2738;2021-01-16 16:15:25:837
0.12;-9.793;-0.146;0.0;0.0;0.0;2749;2021-01-16 16:15:25:848
0.12;-9.793;-0.146;0.0;0.0;0.0;2758;2021-01-16 16:15:25:857
0.12;-9.793;-0.146;0.0;0.0;0.0;2768;2021-01-16 16:15:25:867
0.12;-9.793;-0.146;0.0;0.0;0.0;2778;2021-01-16 16:15:25:877
0.115;-9.79;-0.144;0.0;0.0;0.0;2789;2021-01-16 16:15:25:888
0.115;-9.79;-0.144;0.0;0.0;0.0;2798;2021-01-16 16:15:25:897
0.115;-9.79;-0.144;0.0;0.0;0.0;2808;2021-01-16 16:15:25:907
0.115;-9.79;-0.144;0.0;0.0;0.0;2818;2021-01-16 16:15:25:917
0.115;-9.79;-0.144;0.0;0.0;0.0;2828;2021-01-16 16:15:25:927
0.115;-9.79;-0.144;0.0;0.0;0.0;2838;2021-01-16 16:15:25:937
0.125;-9.795;-0.151;0.0;0.0;0.0;2849;2021-01-16 16:15:25:948
0.125;-9.795;-0.151;0.0;0.0;0.0;2858;2021-01-16 16:15:25:957
0.125;-9.795;-0.151;0.0;0.0;0.0;2872;2021-01-16 16:15:25:971
0.125;-9.795;-0.151;0.0;0.0;0.0;2879;2021-01-16 16:15:25:978
0.125;-9.795;-0.151;0.0;0.0;0.0;2888;2021-01-16 16:15:25:987
0.125;-9.795;-0.151;0.0;0.0;0.0;2898;2021-01-16 16:15:25:997
0.115;-9.793;-0.139;0.0;0.0;0.0;2910;2021-01-16 16:15:26:009
0.115;-9.793;-0.139;0.0;0.0;0.0;2918;2021-01-16 16:15:26:017
0.115;-9.793;-0.139;0.0;0.0;0.0;2928;2021-01-16 16:15:26:027
0.115;-9.793;-0.139;0.0;0.0;0.0;2938;2021-01-16 16:15:26:037
0.115;-9.793;-0.139;0.0;0.0;0.0;2949;2021-01-16 16:15:26:048
0.115;-9.793;-0.139;0.0;0.0;0.0;2958;2021-01-16 16:15:26:057
0.129;-9.783;-0.141;0.0;0.0;0.0;2969;2021-01-16 16:15:26:068
0.129;-9.783;-0.141;0.0;0.0;0.0;2978;2021-01-16 16:15:26:077
0.129;-9.783;-0.141;0.0;0.0;0.0;2989;2021-01-16 16:15:26:088
0.129;-9.783;-0.141;0.0;0.0;0.0;2998;2021-01-16 16:15:26:097
0.129;-9.783;-0.141;0.0;0.0;0.0;3016;2021-01-16 16:15:26:115
0.129;-9.783;-0.141;0.0;0.0;0.0;3019;2021-01-16 16:15:26:118
0.129;-9.783;-0.141;0.0;0.0;0.0;3028;2021-01-16 16:15:26:127
0.129;-9.783;-0.141;0.0;0.0;0.0;3038;2021-01-16 16:15:26:137
0.129;-9.783;-0.141;0.0;0.0;0.0;3050;2021-01-16 16:15:26:149
0.129;-9.783;-0.141;0.0;0.0;0.0;3058;2021-01-16 16:15:26:157
0.129;-9.783;-0.141;0.0;0.0;0.0;3068;2021-01-16 16:15:26:167
0.129;-9.783;-0.141;0.0;0.0;0.0;3079;2021-01-16 16:15:26:178
0.129;-9.783;-0.141;0.0;0.0;0.0;3088;2021-01-16 16:15:26:187
0.129;-9.783;-0.141;0.0;0.0;0.0;3098;2021-01-16 16:15:26:197
0.12;-9.793;-0.146;0.0;0.0;0.0;3108;2021-01-16 16:15:26:207
0.12;-9.793;-0.146;0.0;0.0;0.0;3121;2021-01-16 16:15:26:220
0.12;-9.793;-0.146;0.0;0.0;0.0;3132;2021-01-16 16:15:26:231
0.12;-9.793;-0.146;0.0;0.0;0.0;3138;2021-01-16 16:15:26:237
0.12;-9.793;-0.146;0.0;0.0;0.0;3151;2021-01-16 16:15:26:250
0.12;-9.793;-0.146;0.0;0.0;0.0;3158;2021-01-16 16:15:26:257
0.12;-9.793;-0.146;0.0;0.0;0.0;3168;2021-01-16 16:15:26:267
0.12;-9.793;-0.146;0.0;0.0;0.0;3178;2021-01-16 16:15:26:277
0.12;-9.793;-0.146;0.0;0.0;0.0;3188;2021-01-16 16:15:26:287
0.12;-9.793;-0.146;0.0;0.0;0.0;3198;2021-01-16 16:15:26:297
0.117;-9.785;-0.132;0.0;-0.001;0.0;3208;2021-01-16 16:15:26:307
0.117;-9.785;-0.132;0.0;-0.001;0.0;3231;2021-01-16 16:15:26:330
0.117;-9.785;-0.132;0.0;-0.001;0.0;3232;2021-01-16 16:15:26:331
0.117;-9.785;-0.132;0.0;-0.001;0.0;3243;2021-01-16 16:15:26:342
0.117;-9.785;-0.132;0.0;-0.001;0.0;3248;2021-01-16 16:15:26:347
0.117;-9.785;-0.132;0.0;-0.001;0.0;3258;2021-01-16 16:15:26:357
0.127;-9.79;-0.136;0.0;-0.001;0.0;3268;2021-01-16 16:15:26:367
0.127;-9.79;-0.136;0.0;-0.001;0.0;3278;2021-01-16 16:15:26:377
0.127;-9.79;-0.136;0.0;-0.001;0.0;3289;2021-01-16 16:15:26:388
0.127;-9.79;-0.136;0.0;-0.001;0.0;3298;2021-01-16 16:15:26:397
0.127;-9.79;-0.136;0.0;-0.001;0.0;3308;2021-01-16 16:15:26:407
0.127;-9.79;-0.136;0.0;-0.001;0.0;3318;2021-01-16 16:15:26:417
0.125;-9.8;-0.132;0.0;0.0;0.0;3332;2021-01-16 16:15:26:431
0.125;-9.8;-0.132;0.0;0.0;0.0;3338;2021-01-16 16:15:26:437
0.125;-9.8;-0.132;0.0;0.0;0.0;3350;2021-01-16 16:15:26:449
0.125;-9.8;-0.132;0.0;0.0;0.0;3358;2021-01-16 16:15:26:457
0.125;-9.8;-0.132;0.0;0.0;0.0;3368;2021-01-16 16:15:26:467
0.125;-9.8;-0.132;0.0;0.0;0.0;3378;2021-01-16 16:15:26:477
0.125;-9.773;-0.151;0.0;0.0;0.0;3388;2021-01-16 16:15:26:487
0.125;-9.773;-0.151;0.0;0.0;0.0;3398;2021-01-16 16:15:26:497
0.125;-9.773;-0.151;0.0;0.0;0.0;3408;2021-01-16 16:15:26:507
0.125;-9.773;-0.151;0.0;0.0;0.0;3418;2021-01-16 16:15:26:517
0.125;-9.773;-0.151;0.0;0.0;0.0;3428;2021-01-16 16:15:26:527
0.125;-9.773;-0.151;0.0;0.0;0.0;3439;2021-01-16 16:15:26:538
0.113;-9.79;-0.148;0.0;0.001;0.0;3448;2021-01-16 16:15:26:547
0.113;-9.79;-0.148;0.0;0.001;0.0;3458;2021-01-16 16:15:26:557
0.113;-9.79;-0.148;0.0;0.001;0.0;3468;2021-01-16 16:15:26:567
0.113;-9.79;-0.148;0.0;0.001;0.0;3479;2021-01-16 16:15:26:578
0.113;-9.79;-0.148;0.0;0.001;0.0;3489;2021-01-16 16:15:26:588
0.113;-9.79;-0.148;0.0;0.001;0.0;3498;2021-01-16 16:15:26:597
0.129;-9.783;-0.134;0.0;0.001;0.0;3508;2021-01-16 16:15:26:607
0.129;-9.783;-0.134;0.0;0.001;0.0;3518;2021-01-16 16:15:26:617
0.129;-9.783;-0.134;0.0;0.001;0.0;3528;2021-01-16 16:15:26:627
0.129;-9.783;-0.134;0.0;0.001;0.0;3539;2021-01-16 16:15:26:638
0.129;-9.783;-0.134;0.0;0.001;0.0;3550;2021-01-16 16:15:26:649
0.129;-9.783;-0.134;0.0;0.001;0.0;3558;2021-01-16 16:15:26:657
0.129;-9.795;-0.129;0.0;0.0;0.0;3571;2021-01-16 16:15:26:670
0.129;-9.795;-0.129;0.0;0.0;0.0;3578;2021-01-16 16:15:26:677
0.129;-9.795;-0.129;0.0;0.0;0.0;3588;2021-01-16 16:15:26:687
0.129;-9.795;-0.129;0.0;0.0;0.0;3598;2021-01-16 16:15:26:697
0.129;-9.795;-0.129;0.0;0.0;0.0;3608;2021-01-16 16:15:26:707
0.129;-9.795;-0.129;0.0;0.0;0.0;3618;2021-01-16 16:15:26:717
0.12;-9.795;-0.151;0.0;0.0;0.0;3628;2021-01-16 16:15:26:727
0.12;-9.795;-0.151;0.0;0.0;0.0;3638;2021-01-16 16:15:26:737
0.12;-9.795;-0.151;0.0;0.0;0.0;3650;2021-01-16 16:15:26:749
0.12;-9.795;-0.151;0.0;0.0;0.0;3658;2021-01-16 16:15:26:757
0.12;-9.795;-0.151;0.0;0.0;0.0;3668;2021-01-16 16:15:26:767
0.12;-9.795;-0.151;0.0;0.0;0.0;3679;2021-01-16 16:15:26:778
0.132;-9.788;-0.132;0.0;0.0;0.0;3688;2021-01-16 16:15:26:787
0.132;-9.788;-0.132;0.0;0.0;0.0;3698;2021-01-16 16:15:26:797
0.132;-9.788;-0.132;0.0;0.0;0.0;3708;2021-01-16 16:15:26:807
0.132;-9.788;-0.132;0.0;0.0;0.0;3718;2021-01-16 16:15:26:817
0.132;-9.788;-0.132;0.0;0.0;0.0;3728;2021-01-16 16:15:26:827
0.132;-9.788;-0.132;0.0;0.0;0.0;3741;2021-01-16 16:15:26:840
0.115;-9.776;-0.129;0.0;0.0;0.0;3748;2021-01-16 16:15:26:847
0.115;-9.776;-0.129;0.0;0.0;0.0;3758;2021-01-16 16:15:26:857
0.115;-9.776;-0.129;0.0;0.0;0.0;3768;2021-01-16 16:15:26:867
0.115;-9.776;-0.129;0.0;0.0;0.0;3779;2021-01-16 16:15:26:878
0.115;-9.776;-0.129;0.0;0.0;0.0;3789;2021-01-16 16:15:26:888
0.115;-9.776;-0.129;0.0;0.0;0.0;3798;2021-01-16 16:15:26:897
0.127;-9.79;-0.144;0.0;0.0;0.0;3808;2021-01-16 16:15:26:907
0.127;-9.79;-0.144;0.0;0.0;0.0;3832;2021-01-16 16:15:26:931
0.127;-9.79;-0.144;0.0;0.0;0.0;3833;2021-01-16 16:15:26:932
0.127;-9.79;-0.144;0.0;0.0;0.0;3838;2021-01-16 16:15:26:937
0.127;-9.79;-0.144;0.0;0.0;0.0;3848;2021-01-16 16:15:26:947
0.127;-9.79;-0.144;0.0;0.0;0.0;3858;2021-01-16 16:15:26:957
0.127;-9.781;-0.136;0.0;0.0;0.0;3868;2021-01-16 16:15:26:967
0.127;-9.781;-0.136;0.0;0.0;0.0;3878;2021-01-16 16:15:26:977
0.127;-9.781;-0.136;0.0;0.0;0.0;3892;2021-01-16 16:15:26:991
0.127;-9.781;-0.136;0.0;0.0;0.0;3898;2021-01-16 16:15:26:997
0.127;-9.781;-0.136;0.0;0.0;0.0;3908;2021-01-16 16:15:27:007
0.127;-9.781;-0.136;0.0;0.0;0.0;3918;2021-01-16 16:15:27:017
0.122;-9.797;-0.136;0.0;0.0;0.0;3928;2021-01-16 16:15:27:027
0.122;-9.797;-0.136;0.0;0.0;0.0;3938;2021-01-16 16:15:27:037
0.122;-9.797;-0.136;0.0;0.0;0.0;3948;2021-01-16 16:15:27:047
0.122;-9.797;-0.136;0.0;0.0;0.0;3958;2021-01-16 16:15:27:057
0.122;-9.797;-0.136;0.0;0.0;0.0;3968;2021-01-16 16:15:27:067
0.122;-9.797;-0.136;0.0;0.0;0.0;3978;2021-01-16 16:15:27:077
0.134;-9.783;-0.117;0.0;0.0;0.0;3988;2021-01-16 16:15:27:087
0.134;-9.783;-0.117;0.0;0.0;0.0;3998;2021-01-16 16:15:27:097
0.134;-9.783;-0.117;0.0;0.0;0.0;4008;2021-01-16 16:15:27:107
0.134;-9.783;-0.117;0.0;0.0;0.0;4018;2021-01-16 16:15:27:117
0.134;-9.783;-0.117;0.0;0.0;0.0;4028;2021-01-16 16:15:27:127
0.134;-9.783;-0.117;0.0;0.0;0.0;4038;2021-01-16 16:15:27:137
0.115;-9.788;-0.136;0.0;0.0;0.0;4048;2021-01-16 16:15:27:147
0.115;-9.788;-0.136;0.0;0.0;0.0;4059;2021-01-16 16:15:27:158
0.115;-9.788;-0.136;0.0;0.0;0.0;4074;2021-01-16 16:15:27:173
0.115;-9.788;-0.136;0.0;0.0;0.0;4078;2021-01-16 16:15:27:177
0.115;-9.788;-0.136;0.0;0.0;0.0;4089;2021-01-16 16:15:27:188
0.115;-9.788;-0.136;0.0;0.0;0.0;4098;2021-01-16 16:15:27:197
0.125;-9.797;-0.136;0.0;0.0;0.0;4108;2021-01-16 16:15:27:207
0.125;-9.797;-0.136;0.0;0.0;0.0;4118;2021-01-16 16:15:27:217
0.125;-9.797;-0.136;0.0;0.0;0.0;4128;2021-01-16 16:15:27:227
0.125;-9.797;-0.136;0.0;0.0;0.0;4138;2021-01-16 16:15:27:237
0.125;-9.797;-0.136;0.0;0.0;0.0;4148;2021-01-16 16:15:27:247
0.125;-9.797;-0.136;0.0;0.0;0.0;4159;2021-01-16 16:15:27:258
0.141;-9.776;-0.148;0.0;0.0;0.0;4168;2021-01-16 16:15:27:267
0.141;-9.776;-0.148;0.0;0.001;0.0;4179;2021-01-16 16:15:27:278
0.141;-9.776;-0.148;0.0;0.001;0.0;4188;2021-01-16 16:15:27:287
0.141;-9.776;-0.148;0.0;0.001;0.0;4198;2021-01-16 16:15:27:297
0.141;-9.776;-0.148;0.0;0.001;0.0;4209;2021-01-16 16:15:27:308
0.141;-9.776;-0.148;0.0;0.001;0.0;4218;2021-01-16 16:15:27:317
0.134;-9.785;-0.136;0.0;0.001;0.0;4228;2021-01-16 16:15:27:327
0.134;-9.785;-0.136;0.0;0.001;0.0;4238;2021-01-16 16:15:27:337
0.134;-9.785;-0.136;0.0;0.001;0.0;4248;2021-01-16 16:15:27:347
0.134;-9.785;-0.136;0.0;0.001;0.0;4259;2021-01-16 16:15:27:358
0.134;-9.785;-0.136;0.0;0.001;0.0;4268;2021-01-16 16:15:27:367
0.134;-9.785;-0.136;0.0;0.001;0.0;4278;2021-01-16 16:15:27:377
0.136;-9.785;-0.132;0.0;0.0;0.0;4293;2021-01-16 16:15:27:392
0.136;-9.785;-0.132;0.0;0.0;0.0;4298;2021-01-16 16:15:27:397
0.136;-9.785;-0.132;0.0;0.0;0.0;4308;2021-01-16 16:15:27:407
0.136;-9.785;-0.132;0.0;0.0;0.0;4318;2021-01-16 16:15:27:417
0.136;-9.785;-0.132;0.0;0.0;0.0;4328;2021-01-16 16:15:27:427
0.136;-9.785;-0.132;0.0;0.0;0.0;4338;2021-01-16 16:15:27:437
0.129;-9.788;-0.139;0.0;0.0;0.0;4349;2021-01-16 16:15:27:448
0.129;-9.788;-0.139;0.0;0.0;0.0;4359;2021-01-16 16:15:27:458
0.129;-9.788;-0.139;0.0;0.0;0.0;4370;2021-01-16 16:15:27:469
0.129;-9.788;-0.139;0.0;0.0;0.0;4378;2021-01-16 16:15:27:477
0.129;-9.788;-0.139;0.0;0.0;0.0;4390;2021-01-16 16:15:27:489
0.129;-9.788;-0.139;0.0;0.0;0.0;4398;2021-01-16 16:15:27:497
0.115;-9.788;-0.125;0.0;0.0;0.0;4409;2021-01-16 16:15:27:508
0.115;-9.788;-0.125;0.0;0.0;0.0;4418;2021-01-16 16:15:27:517
0.115;-9.788;-0.125;0.0;0.0;0.0;4428;2021-01-16 16:15:27:527
0.115;-9.788;-0.125;0.0;0.0;0.0;4442;2021-01-16 16:15:27:541
0.115;-9.788;-0.125;0.0;0.0;0.0;4448;2021-01-16 16:15:27:547
0.115;-9.788;-0.125;0.0;0.0;0.0;4458;2021-01-16 16:15:27:557
0.129;-9.788;-0.136;0.0;0.0;0.0;4470;2021-01-16 16:15:27:569
0.129;-9.788;-0.136;0.0;0.0;0.0;4478;2021-01-16 16:15:27:577
0.129;-9.788;-0.136;0.0;0.0;0.0;4488;2021-01-16 16:15:27:587
0.129;-9.788;-0.136;0.0;0.0;0.0;4499;2021-01-16 16:15:27:598
0.129;-9.788;-0.136;0.0;0.0;0.0;4508;2021-01-16 16:15:27:607
0.129;-9.788;-0.136;0.0;0.0;0.0;4518;2021-01-16 16:15:27:617
0.115;-9.793;-0.132;0.0;0.0;0.0;4528;2021-01-16 16:15:27:627
0.115;-9.793;-0.132;0.0;0.0;0.0;4540;2021-01-16 16:15:27:639
0.115;-9.793;-0.132;0.0;0.0;0.0;4548;2021-01-16 16:15:27:647
0.115;-9.793;-0.132;0.0;0.0;0.0;4559;2021-01-16 16:15:27:658
0.115;-9.793;-0.132;0.0;0.0;0.0;4570;2021-01-16 16:15:27:669
0.115;-9.793;-0.132;0.0;0.0;0.0;4578;2021-01-16 16:15:27:677
0.125;-9.795;-0.136;0.0;0.0;0.0;4588;2021-01-16 16:15:27:687
0.125;-9.795;-0.136;0.0;0.0;0.0;4598;2021-01-16 16:15:27:697
0.125;-9.795;-0.136;0.0;0.0;0.0;4608;2021-01-16 16:15:27:707
0.125;-9.795;-0.136;0.0;0.0;0.0;4620;2021-01-16 16:15:27:719
0.125;-9.795;-0.136;0.0;0.0;0.0;4628;2021-01-16 16:15:27:727
0.125;-9.795;-0.136;0.0;0.0;0.0;4638;2021-01-16 16:15:27:737
0.136;-9.793;-0.148;0.0;0.0;0.0;4648;2021-01-16 16:15:27:747
0.136;-9.793;-0.148;0.0;0.0;0.0;4658;2021-01-16 16:15:27:757
0.136;-9.793;-0.148;0.0;0.0;0.0;4669;2021-01-16 16:15:27:768
0.136;-9.793;-0.148;0.0;0.0;0.0;4678;2021-01-16 16:15:27:777
0.136;-9.793;-0.148;0.0;0.0;0.0;4688;2021-01-16 16:15:27:787
0.136;-9.793;-0.148;0.0;0.0;0.0;4698;2021-01-16 16:15:27:797
0.12;-9.785;-0.148;0.0;0.0;0.0;4709;2021-01-16 16:15:27:808
0.12;-9.785;-0.148;0.0;0.0;0.0;4718;2021-01-16 16:15:27:817
0.12;-9.785;-0.148;0.0;0.0;0.0;4729;2021-01-16 16:15:27:828
0.12;-9.785;-0.148;0.0;0.0;0.0;4740;2021-01-16 16:15:27:839
0.12;-9.785;-0.148;0.0;0.0;0.0;4748;2021-01-16 16:15:27:847
0.12;-9.785;-0.148;0.0;0.0;0.0;4758;2021-01-16 16:15:27:857
0.132;-9.797;-0.136;0.0;0.001;0.0;4768;2021-01-16 16:15:27:867
0.132;-9.797;-0.136;0.0;0.001;0.0;4778;2021-01-16 16:15:27:877
0.132;-9.797;-0.136;0.0;0.001;0.0;4788;2021-01-16 16:15:27:887
0.132;-9.797;-0.136;0.0;0.001;0.0;4798;2021-01-16 16:15:27:897
0.132;-9.797;-0.136;0.0;0.001;0.0;4808;2021-01-16 16:15:27:907
0.132;-9.797;-0.136;0.0;0.001;0.0;4818;2021-01-16 16:15:27:917
0.12;-9.809;-0.139;0.0;0.001;0.0;4828;2021-01-16 16:15:27:927
0.12;-9.809;-0.139;0.0;0.001;0.0;4839;2021-01-16 16:15:27:938
0.12;-9.809;-0.139;0.0;0.001;0.0;4849;2021-01-16 16:15:27:948
0.12;-9.809;-0.139;0.0;0.001;0.0;4858;2021-01-16 16:15:27:957
0.12;-9.809;-0.139;0.0;0.001;0.0;4876;2021-01-16 16:15:27:975
0.12;-9.809;-0.139;0.0;0.001;0.0;4878;2021-01-16 16:15:27:977
0.127;-9.8;-0.148;0.0;0.0;0.0;4888;2021-01-16 16:15:27:987
0.127;-9.8;-0.148;0.0;0.0;0.0;4899;2021-01-16 16:15:27:998
0.127;-9.8;-0.148;0.0;0.0;0.0;4911;2021-01-16 16:15:28:010
0.127;-9.8;-0.148;0.0;0.0;0.0;4920;2021-01-16 16:15:28:019
0.127;-9.8;-0.148;0.0;0.0;0.0;4928;2021-01-16 16:15:28:027
0.127;-9.8;-0.148;0.0;0.0;0.0;4938;2021-01-16 16:15:28:037
0.129;-9.793;-0.148;0.0;0.0;0.0;4949;2021-01-16 16:15:28:048
0.129;-9.793;-0.148;0.0;0.0;0.0;4958;2021-01-16 16:15:28:057
0.129;-9.793;-0.148;0.0;0.0;0.0;4969;2021-01-16 16:15:28:068
0.129;-9.793;-0.148;0.0;0.0;0.0;4983;2021-01-16 16:15:28:082
0.129;-9.793;-0.148;0.0;0.0;0.0;4988;2021-01-16 16:15:28:087
0.129;-9.793;-0.148;0.0;0.0;0.0;4999;2021-01-16 16:15:28:098
0.129;-9.788;-0.158;0.0;0.0;0.0;5011;2021-01-16 16:15:28:110
0.129;-9.788;-0.158;0.0;0.0;0.0;5018;2021-01-16 16:15:28:117
0.129;-9.788;-0.158;0.0;0.0;0.0;5028;2021-01-16 16:15:28:127
0.129;-9.788;-0.158;0.0;0.0;0.0;5039;2021-01-16 16:15:28:138
0.129;-9.788;-0.158;0.0;0.0;0.0;5048;2021-01-16 16:15:28:147
0.129;-9.788;-0.158;0.0;0.0;0.0;5058;2021-01-16 16:15:28:157
0.12;-9.785;-0.148;0.0;0.0;0.0;5068;2021-01-16 16:15:28:167
0.12;-9.785;-0.148;0.0;0.0;0.0;5079;2021-01-16 16:15:28:178
0.12;-9.785;-0.148;0.0;0.0;0.0;5088;2021-01-16 16:15:28:187
0.12;-9.785;-0.148;0.0;0.0;0.0;5099;2021-01-16 16:15:28:198
0.12;-9.785;-0.148;0.0;0.0;0.0;5109;2021-01-16 16:15:28:208
0.12;-9.785;-0.148;0.0;0.0;0.0;5119;2021-01-16 16:15:28:218
0.132;-9.778;-0.146;0.0;0.0;0.0;5129;2021-01-16 16:15:28:228
0.132;-9.778;-0.146;0.0;0.0;0.0;5139;2021-01-16 16:15:28:238
0.132;-9.778;-0.146;0.0;0.0;0.0;5148;2021-01-16 16:15:28:247
0.132;-9.778;-0.146;0.0;0.0;0.0;5158;2021-01-16 16:15:28:257
0.132;-9.778;-0.146;0.0;0.0;0.0;5169;2021-01-16 16:15:28:268
0.132;-9.778;-0.146;0.0;0.0;0.0;5178;2021-01-16 16:15:28:277
0.127;-9.783;-0.125;0.0;0.0;0.0;5188;2021-01-16 16:15:28:287
0.127;-9.783;-0.125;0.0;0.0;0.0;5199;2021-01-16 16:15:28:298
0.127;-9.783;-0.125;0.0;0.0;0.0;5209;2021-01-16 16:15:28:308
0.127;-9.783;-0.125;0.0;0.0;0.0;5218;2021-01-16 16:15:28:317
0.127;-9.783;-0.125;0.0;0.0;0.0;5229;2021-01-16 16:15:28:328
0.127;-9.783;-0.125;0.0;0.0;0.0;5243;2021-01-16 16:15:28:342
0.125;-9.781;-0.144;0.0;0.0;0.0;5254;2021-01-16 16:15:28:353
0.125;-9.781;-0.144;0.0;0.0;0.0;5258;2021-01-16 16:15:28:357
0.125;-9.781;-0.144;0.0;0.0;0.0;5269;2021-01-16 16:15:28:368
0.125;-9.781;-0.144;0.0;0.0;0.0;5285;2021-01-16 16:15:28:384
0.125;-9.781;-0.144;0.0;0.0;0.0;5288;2021-01-16 16:15:28:387
0.125;-9.781;-0.144;0.0;0.0;0.0;5299;2021-01-16 16:15:28:398
0.125;-9.783;-0.136;0.0;0.0;0.0;5311;2021-01-16 16:15:28:410
0.125;-9.783;-0.136;0.0;0.0;0.0;5319;2021-01-16 16:15:28:418
0.125;-9.783;-0.136;0.0;0.0;0.0;5328;2021-01-16 16:15:28:427
0.125;-9.783;-0.136;0.0;0.0;0.0;5339;2021-01-16 16:15:28:438
0.125;-9.783;-0.136;0.0;0.0;0.0;5349;2021-01-16 16:15:28:448
0.125;-9.783;-0.136;0.0;0.0;0.0;5358;2021-01-16 16:15:28:457
0.136;-9.778;-0.141;0.0;0.0;0.0;5368;2021-01-16 16:15:28:467
0.136;-9.778;-0.141;0.0;0.0;0.0;5379;2021-01-16 16:15:28:478
0.136;-9.778;-0.141;0.0;0.0;0.0;5388;2021-01-16 16:15:28:487
0.136;-9.778;-0.141;0.0;0.0;0.0;5398;2021-01-16 16:15:28:497
0.136;-9.778;-0.141;0.0;0.0;0.0;5409;2021-01-16 16:15:28:508
0.136;-9.778;-0.141;0.0;0.0;0.0;5418;2021-01-16 16:15:28:517
0.11;-9.776;-0.136;0.0;0.0;0.0;5428;2021-01-16 16:15:28:527
0.11;-9.776;-0.136;0.0;0.0;0.0;5438;2021-01-16 16:15:28:537
0.11;-9.776;-0.136;0.0;0.0;0.0;5448;2021-01-16 16:15:28:547
0.11;-9.776;-0.136;0.0;0.0;0.0;5459;2021-01-16 16:15:28:558
0.11;-9.776;-0.136;0.0;0.0;0.0;5468;2021-01-16 16:15:28:567
0.11;-9.776;-0.136;0.0;0.0;0.0;5478;2021-01-16 16:15:28:577
0.134;-9.797;-0.129;0.0;0.0;0.0;5489;2021-01-16 16:15:28:588
0.134;-9.797;-0.129;0.0;0.0;0.0;5498;2021-01-16 16:15:28:597
0.134;-9.797;-0.129;0.0;0.0;0.0;5509;2021-01-16 16:15:28:608
0.134;-9.797;-0.129;0.0;0.0;0.0;5518;2021-01-16 16:15:28:617
0.134;-9.797;-0.129;0.0;0.0;0.0;5528;2021-01-16 16:15:28:627
0.134;-9.797;-0.129;0.0;0.0;0.0;5543;2021-01-16 16:15:28:642
0.141;-9.797;-0.139;0.0;0.0;0.0;5548;2021-01-16 16:15:28:647
0.141;-9.797;-0.139;0.0;0.0;0.0;5561;2021-01-16 16:15:28:660
0.141;-9.797;-0.139;0.0;0.0;0.0;5569;2021-01-16 16:15:28:668
0.141;-9.797;-0.139;0.0;0.0;0.0;5578;2021-01-16 16:15:28:677
0.141;-9.797;-0.139;0.0;0.0;0.0;5590;2021-01-16 16:15:28:689
0.141;-9.797;-0.139;0.0;0.0;0.0;5598;2021-01-16 16:15:28:697
0.146;-9.805;-0.144;0.0;0.0;0.0;5608;2021-01-16 16:15:28:707
0.146;-9.805;-0.144;0.0;0.0;0.0;5619;2021-01-16 16:15:28:718
0.146;-9.805;-0.144;0.0;0.0;0.0;5628;2021-01-16 16:15:28:727
0.146;-9.805;-0.144;0.0;0.0;0.0;5638;2021-01-16 16:15:28:737
0.146;-9.805;-0.144;0.0;0.0;0.0;5648;2021-01-16 16:15:28:747
0.125;-9.785;-0.139;0.0;0.0;0.0;5666;2021-01-16 16:15:28:765
0.125;-9.785;-0.139;0.0;0.0;0.0;5668;2021-01-16 16:15:28:767
0.125;-9.785;-0.139;0.0;0.0;0.0;5679;2021-01-16 16:15:28:778
0.125;-9.785;-0.139;0.0;0.0;0.0;5695;2021-01-16 16:15:28:794
0.125;-9.785;-0.139;0.0;0.0;0.0;5698;2021-01-16 16:15:28:797
0.125;-9.785;-0.139;0.0;0.0;0.0;5708;2021-01-16 16:15:28:807
0.125;-9.785;-0.139;0.0;0.0;0.0;5718;2021-01-16 16:15:28:817
0.125;-9.785;-0.139;0.0;0.0;0.0;5728;2021-01-16 16:15:28:827
0.125;-9.781;-0.158;0.0;0.0;0.0;5744;2021-01-16 16:15:28:843
0.125;-9.781;-0.158;0.0;0.0;0.0;5749;2021-01-16 16:15:28:848
0.125;-9.781;-0.158;0.0;0.0;0.0;5758;2021-01-16 16:15:28:857
0.125;-9.781;-0.158;0.0;0.0;0.0;5769;2021-01-16 16:15:28:868
0.125;-9.781;-0.158;0.0;0.0;0.0;5780;2021-01-16 16:15:28:879
0.117;-9.778;-0.134;0.0;0.0;0.0;5788;2021-01-16 16:15:28:887
0.117;-9.778;-0.134;0.0;0.0;0.0;5799;2021-01-16 16:15:28:898
0.117;-9.778;-0.134;0.0;0.0;0.0;5808;2021-01-16 16:15:28:907
0.117;-9.778;-0.134;0.0;0.0;0.0;5818;2021-01-16 16:15:28:917
0.117;-9.778;-0.134;0.0;0.0;0.0;5828;2021-01-16 16:15:28:927
0.117;-9.778;-0.134;0.0;0.0;0.0;5838;2021-01-16 16:15:28:937
0.134;-9.783;-0.146;0.0;0.0;0.0;5848;2021-01-16 16:15:28:947
0.134;-9.783;-0.146;0.0;0.0;0.0;5858;2021-01-16 16:15:28:957
0.134;-9.783;-0.146;0.0;0.0;0.0;5870;2021-01-16 16:15:28:969
0.134;-9.783;-0.146;0.0;0.0;0.0;5882;2021-01-16 16:15:28:981
0.134;-9.783;-0.146;0.0;0.0;0.0;5889;2021-01-16 16:15:28:988
0.134;-9.783;-0.146;0.0;0.0;0.0;5898;2021-01-16 16:15:28:997
0.127;-9.79;-0.141;0.0;0.0;0.0;5911;2021-01-16 16:15:29:010
0.127;-9.79;-0.141;0.0;0.0;0.0;5918;2021-01-16 16:15:29:017
0.127;-9.79;-0.141;0.0;0.0;0.0;5928;2021-01-16 16:15:29:027
0.127;-9.79;-0.141;0.0;0.0;0.0;5938;2021-01-16 16:15:29:037
0.127;-9.79;-0.141;0.0;0.0;0.0;5949;2021-01-16 16:15:29:048
0.127;-9.79;-0.141;0.0;0.0;0.0;5958;2021-01-16 16:15:29:057
0.132;-9.795;-0.144;0.0;0.001;0.0;5973;2021-01-16 16:15:29:072
0.132;-9.795;-0.144;0.0;0.001;0.0;5979;2021-01-16 16:15:29:078
0.132;-9.795;-0.144;0.0;0.001;0.0;5989;2021-01-16 16:15:29:088
0.132;-9.795;-0.144;0.0;0.001;0.0;5998;2021-01-16 16:15:29:097
0.132;-9.795;-0.144;0.0;0.001;0.0;6008;2021-01-16 16:15:29:107
0.132;-9.795;-0.144;0.0;0.001;0.0;6018;2021-01-16 16:15:29:117
0.125;-9.793;-0.146;0.0;0.001;0.0;6030;2021-01-16 16:15:29:129
0.125;-9.793;-0.146;0.0;0.001;0.0;6039;2021-01-16 16:15:29:138
0.125;-9.793;-0.146;0.0;0.001;0.0;6048;2021-01-16 16:15:29:147
0.125;-9.793;-0.146;0.0;0.001;0.0;6059;2021-01-16 16:15:29:158
0.125;-9.793;-0.146;0.0;0.001;0.0;6069;2021-01-16 16:15:29:168
0.125;-9.793;-0.146;0.0;0.001;0.0;6078;2021-01-16 16:15:29:177
0.117;-9.778;-0.132;0.001;0.0;0.0;6090;2021-01-16 16:15:29:189
0.117;-9.778;-0.132;0.001;0.0;0.0;6100;2021-01-16 16:15:29:199
0.117;-9.778;-0.132;0.001;0.0;0.0;6108;2021-01-16 16:15:29:207
0.117;-9.778;-0.132;0.001;0.0;0.0;6118;2021-01-16 16:15:29:217
0.117;-9.778;-0.132;0.001;0.0;0.0;6128;2021-01-16 16:15:29:227
0.117;-9.778;-0.132;0.001;0.0;0.0;6139;2021-01-16 16:15:29:238
0.139;-9.8;-0.136;0.001;0.0;0.0;6149;2021-01-16 16:15:29:248
0.139;-9.8;-0.136;0.001;0.0;0.0;6161;2021-01-16 16:15:29:260
0.139;-9.8;-0.136;0.001;0.0;0.0;6168;2021-01-16 16:15:29:267
0.139;-9.8;-0.136;0.001;0.0;0.0;6178;2021-01-16 16:15:29:277
0.139;-9.8;-0.136;0.001;0.0;0.0;6188;2021-01-16 16:15:29:287
0.139;-9.8;-0.136;0.001;0.0;0.0;6198;2021-01-16 16:15:29:297
0.139;-9.776;-0.132;0.0;0.0;0.0;6208;2021-01-16 16:15:29:307
0.139;-9.776;-0.132;0.0;0.0;0.0;6218;2021-01-16 16:15:29:317
0.139;-9.776;-0.132;0.0;0.0;0.0;6228;2021-01-16 16:15:29:327
0.139;-9.776;-0.132;0.0;0.0;0.0;6238;2021-01-16 16:15:29:337
0.139;-9.776;-0.132;0.0;0.0;0.0;6249;2021-01-16 16:15:29:348
0.139;-9.776;-0.132;0.0;0.0;0.0;6258;2021-01-16 16:15:29:357
0.136;-9.795;-0.136;0.0;0.0;0.0;6269;2021-01-16 16:15:29:368
0.136;-9.795;-0.136;0.0;0.0;0.0;6278;2021-01-16 16:15:29:377
0.136;-9.795;-0.136;0.0;0.0;0.0;6288;2021-01-16 16:15:29:387
0.136;-9.795;-0.136;0.0;0.0;0.0;6300;2021-01-16 16:15:29:399
0.136;-9.795;-0.136;0.0;0.0;0.0;6311;2021-01-16 16:15:29:410
0.136;-9.795;-0.136;0.0;0.0;0.0;6318;2021-01-16 16:15:29:417
0.134;-9.778;-0.144;0.0;0.0;0.0;6329;2021-01-16 16:15:29:428
0.134;-9.778;-0.144;0.0;0.0;0.0;6338;2021-01-16 16:15:29:437
0.134;-9.778;-0.144;0.0;0.0;0.0;6348;2021-01-16 16:15:29:447
0.134;-9.778;-0.144;0.0;0.0;0.0;6359;2021-01-16 16:15:29:458
0.134;-9.778;-0.144;0.0;0.0;0.0;6369;2021-01-16 16:15:29:468
0.134;-9.778;-0.144;0.0;0.0;0.0;6380;2021-01-16 16:15:29:479
0.132;-9.797;-0.129;0.0;0.0;0.0;6388;2021-01-16 16:15:29:487
0.132;-9.797;-0.129;0.0;0.0;0.0;6398;2021-01-16 16:15:29:497
0.132;-9.797;-0.129;0.0;0.0;0.0;6408;2021-01-16 16:15:29:507
0.132;-9.797;-0.129;0.0;0.0;0.0;6418;2021-01-16 16:15:29:517
0.132;-9.797;-0.129;0.0;0.0;0.0;6429;2021-01-16 16:15:29:528
0.132;-9.797;-0.129;0.0;0.0;0.0;6438;2021-01-16 16:15:29:537
0.122;-9.8;-0.141;0.0;0.0;0.0;6448;2021-01-16 16:15:29:547
0.122;-9.8;-0.141;0.0;0.0;0.0;6458;2021-01-16 16:15:29:557
0.122;-9.8;-0.141;0.0;0.0;0.0;6468;2021-01-16 16:15:29:567
0.122;-9.8;-0.141;0.0;0.0;0.0;6479;2021-01-16 16:15:29:578
0.122;-9.8;-0.141;0.0;0.0;0.0;6488;2021-01-16 16:15:29:587
0.122;-9.8;-0.141;0.0;0.0;0.0;6498;2021-01-16 16:15:29:597
0.129;-9.793;-0.146;0.0;0.0;0.0;6509;2021-01-16 16:15:29:608
0.129;-9.793;-0.146;0.0;0.0;0.0;6518;2021-01-16 16:15:29:617
0.129;-9.793;-0.146;0.0;0.0;0.0;6528;2021-01-16 16:15:29:627
0.129;-9.793;-0.146;0.0;0.0;0.0;6538;2021-01-16 16:15:29:637
0.129;-9.793;-0.146;0.0;0.0;0.0;6548;2021-01-16 16:15:29:647
0.129;-9.793;-0.146;0.0;0.0;0.0;6558;2021-01-16 16:15:29:657
0.139;-9.764;-0.125;0.0;0.0;0.0;6568;2021-01-16 16:15:29:667
0.139;-9.764;-0.125;0.0;0.0;0.0;6578;2021-01-16 16:15:29:677
0.139;-9.764;-0.125;0.0;0.0;0.0;6589;2021-01-16 16:15:29:688
0.139;-9.764;-0.125;0.0;0.0;0.0;6599;2021-01-16 16:15:29:698
0.139;-9.764;-0.125;0.0;0.0;0.0;6608;2021-01-16 16:15:29:707
0.139;-9.764;-0.125;0.0;0.0;0.0;6618;2021-01-16 16:15:29:717
0.125;-9.785;-0.129;0.0;0.0;0.0;6628;2021-01-16 16:15:29:727
0.125;-9.785;-0.129;0.0;0.0;0.0;6638;2021-01-16 16:15:29:737
0.125;-9.785;-0.129;0.0;0.0;0.0;6648;2021-01-16 16:15:29:747
0.125;-9.785;-0.129;0.0;0.0;0.0;6661;2021-01-16 16:15:29:760
0.125;-9.785;-0.129;0.0;0.0;0.0;6668;2021-01-16 16:15:29:767
0.125;-9.785;-0.129;0.0;0.0;0.0;6678;2021-01-16 16:15:29:777
0.122;-9.783;-0.136;0.0;0.0;0.0;6688;2021-01-16 16:15:29:787
0.122;-9.783;-0.136;0.0;0.0;0.0;6698;2021-01-16 16:15:29:797
0.122;-9.783;-0.136;0.0;0.0;0.0;6708;2021-01-16 16:15:29:807
0.122;-9.783;-0.136;0.0;0.0;0.0;6719;2021-01-16 16:15:29:818
0.122;-9.783;-0.136;0.0;0.0;0.0;6728;2021-01-16 16:15:29:827
0.122;-9.783;-0.136;0.0;0.0;0.0;6739;2021-01-16 16:15:29:838
0.132;-9.778;-0.136;0.0;0.0;0.0;6748;2021-01-16 16:15:29:847
0.132;-9.778;-0.136;0.0;0.0;0.0;6758;2021-01-16 16:15:29:857
0.132;-9.778;-0.136;0.0;0.0;0.0;6768;2021-01-16 16:15:29:867
0.132;-9.778;-0.136;0.0;0.0;0.0;6779;2021-01-16 16:15:29:878
0.132;-9.778;-0.136;0.0;0.0;0.0;6788;2021-01-16 16:15:29:887
0.132;-9.778;-0.136;0.0;0.0;0.0;6798;2021-01-16 16:15:29:897
0.146;-9.795;-0.139;0.0;0.0;0.0;6809;2021-01-16 16:15:29:908
0.146;-9.795;-0.139;0.0;0.0;0.0;6818;2021-01-16 16:15:29:917
0.146;-9.795;-0.139;0.0;0.0;0.0;6829;2021-01-16 16:15:29:928
0.146;-9.795;-0.139;0.0;0.0;0.0;6838;2021-01-16 16:15:29:937
0.146;-9.795;-0.139;0.0;0.0;0.0;6848;2021-01-16 16:15:29:947
0.146;-9.795;-0.139;0.0;0.0;0.0;6858;2021-01-16 16:15:29:957
0.136;-9.778;-0.146;0.0;0.0;0.0;6868;2021-01-16 16:15:29:967
0.136;-9.778;-0.146;0.0;0.0;0.0;6878;2021-01-16 16:15:29:977
0.136;-9.778;-0.146;0.0;0.0;0.0;6888;2021-01-16 16:15:29:987
0.136;-9.778;-0.146;0.0;0.0;0.0;6898;2021-01-16 16:15:29:997
0.136;-9.778;-0.146;0.0;0.0;0.0;6908;2021-01-16 16:15:30:007
0.136;-9.778;-0.146;0.0;0.0;0.0;6919;2021-01-16 16:15:30:018
0.127;-9.788;-0.144;0.0;0.0;0.0;6928;2021-01-16 16:15:30:027
0.127;-9.788;-0.144;0.0;0.0;0.0;6938;2021-01-16 16:15:30:037
0.127;-9.788;-0.144;0.0;0.0;0.0;6948;2021-01-16 16:15:30:047
0.127;-9.788;-0.144;0.0;0.0;0.0;6959;2021-01-16 16:15:30:058
0.127;-9.788;-0.144;0.0;0.0;0.0;6968;2021-01-16 16:15:30:067
0.127;-9.788;-0.144;0.0;0.0;0.0;6978;2021-01-16 16:15:30:077
0.141;-9.778;-0.136;0.0;0.0;0.0;6989;2021-01-16 16:15:30:088
0.141;-9.778;-0.136;0.0;0.0;0.0;6999;2021-01-16 16:15:30:098
0.141;-9.778;-0.136;0.0;0.0;0.0;7009;2021-01-16 16:15:30:108
0.141;-9.778;-0.136;0.0;0.0;0.0;7018;2021-01-16 16:15:30:117
0.141;-9.778;-0.136;0.0;0.0;0.0;7028;2021-01-16 16:15:30:127
0.141;-9.778;-0.136;0.0;0.0;0.0;7038;2021-01-16 16:15:30:137
0.129;-9.785;-0.146;0.0;0.0;0.0;7048;2021-01-16 16:15:30:147
0.129;-9.785;-0.146;0.0;0.0;0.0;7058;2021-01-16 16:15:30:157
0.129;-9.785;-0.146;0.0;0.0;0.0;7068;2021-01-16 16:15:30:167
0.129;-9.785;-0.146;0.0;0.0;0.0;7078;2021-01-16 16:15:30:177
0.129;-9.785;-0.146;0.0;0.0;0.0;7088;2021-01-16 16:15:30:187
0.129;-9.785;-0.146;0.0;0.0;0.0;7099;2021-01-16 16:15:30:198
0.144;-9.8;-0.146;0.0;0.0;0.0;7109;2021-01-16 16:15:30:208
0.144;-9.8;-0.146;0.0;0.0;0.0;7118;2021-01-16 16:15:30:217
0.144;-9.8;-0.146;0.0;0.0;0.0;7128;2021-01-16 16:15:30:227
0.144;-9.8;-0.146;0.0;0.0;0.0;7138;2021-01-16 16:15:30:237
0.144;-9.8;-0.146;0.0;0.0;0.0;7148;2021-01-16 16:15:30:247
0.144;-9.8;-0.146;0.0;0.0;0.0;7158;2021-01-16 16:15:30:257
0.117;-9.783;-0.129;0.0;0.0;0.0;7168;2021-01-16 16:15:30:267
0.117;-9.783;-0.129;0.0;0.0;0.0;7178;2021-01-16 16:15:30:277
0.117;-9.783;-0.129;0.0;0.0;0.0;7188;2021-01-16 16:15:30:287
0.117;-9.783;-0.129;0.0;0.0;0.0;7198;2021-01-16 16:15:30:297
0.117;-9.783;-0.129;0.0;0.0;0.0;7212;2021-01-16 16:15:30:311
0.117;-9.783;-0.129;0.0;0.0;0.0;7218;2021-01-16 16:15:30:317
0.122;-9.797;-0.153;0.0;0.0;0.0;7229;2021-01-16 16:15:30:328
0.122;-9.797;-0.153;0.0;0.0;0.0;7238;2021-01-16 16:15:30:337
0.122;-9.797;-0.153;0.0;0.0;0.0;7248;2021-01-16 16:15:30:347
0.122;-9.797;-0.153;0.0;0.0;0.0;7265;2021-01-16 16:15:30:364
0.122;-9.797;-0.153;0.0;0.0;0.0;7268;2021-01-16 16:15:30:367
0.122;-9.797;-0.153;0.0;0.0;0.0;7279;2021-01-16 16:15:30:378
0.129;-9.793;-0.141;0.0;0.0;0.0;7288;2021-01-16 16:15:30:387
0.129;-9.793;-0.141;0.0;0.0;0.0;7299;2021-01-16 16:15:30:398
0.129;-9.793;-0.141;0.0;0.0;0.0;7308;2021-01-16 16:15:30:407
0.129;-9.793;-0.141;0.0;0.0;0.0;7318;2021-01-16 16:15:30:417
0.129;-9.793;-0.141;0.0;0.0;0.0;7328;2021-01-16 16:15:30:427
0.129;-9.793;-0.141;0.0;0.0;0.0;7338;2021-01-16 16:15:30:437
0.12;-9.79;-0.127;0.0;0.0;0.0;7348;2021-01-16 16:15:30:447
0.12;-9.79;-0.127;0.0;0.0;0.0;7359;2021-01-16 16:15:30:458
0.12;-9.79;-0.127;0.0;0.0;0.0;7369;2021-01-16 16:15:30:468
0.12;-9.79;-0.127;0.0;0.0;0.0;7380;2021-01-16 16:15:30:479
0.12;-9.79;-0.127;0.0;0.0;0.0;7391;2021-01-16 16:15:30:490
0.12;-9.79;-0.127;0.0;0.0;0.0;7398;2021-01-16 16:15:30:497
0.122;-9.8;-0.127;0.0;0.0;0.0;7408;2021-01-16 16:15:30:507
0.122;-9.8;-0.127;0.0;0.0;0.0;7418;2021-01-16 16:15:30:517
0.122;-9.8;-0.127;0.0;0.0;0.0;7428;2021-01-16 16:15:30:527
0.122;-9.8;-0.127;0.0;0.0;0.0;7439;2021-01-16 16:15:30:538
0.122;-9.8;-0.127;0.0;0.0;0.0;7448;2021-01-16 16:15:30:547
0.122;-9.8;-0.127;0.0;0.0;0.0;7458;2021-01-16 16:15:30:557
0.125;-9.802;-0.11;0.0;0.0;0.0;7468;2021-01-16 16:15:30:567
0.125;-9.802;-0.11;0.0;0.0;0.0;7478;2021-01-16 16:15:30:577
0.125;-9.802;-0.11;0.0;0.0;0.0;7488;2021-01-16 16:15:30:587
0.125;-9.802;-0.11;0.0;0.0;0.0;7498;2021-01-16 16:15:30:597
0.125;-9.802;-0.11;0.0;0.0;0.0;7509;2021-01-16 16:15:30:608
0.125;-9.802;-0.11;0.0;0.0;0.0;7519;2021-01-16 16:15:30:618
0.115;-9.778;-0.108;0.0;0.001;0.0;7529;2021-01-16 16:15:30:628
0.115;-9.778;-0.108;0.0;0.001;0.0;7538;2021-01-16 16:15:30:637
0.115;-9.778;-0.108;0.0;0.001;0.0;7548;2021-01-16 16:15:30:647
0.115;-9.778;-0.108;0.0;0.001;0.0;7558;2021-01-16 16:15:30:657
0.115;-9.778;-0.108;0.0;0.001;0.0;7568;2021-01-16 16:15:30:667
0.115;-9.778;-0.108;0.0;0.001;0.0;7579;2021-01-16 16:15:30:678
0.129;-9.776;-0.113;0.0;0.001;0.0;7588;2021-01-16 16:15:30:687
0.129;-9.776;-0.113;0.0;0.001;0.0;7603;2021-01-16 16:15:30:702
0.129;-9.776;-0.113;0.0;0.001;0.0;7608;2021-01-16 16:15:30:707
0.129;-9.776;-0.113;0.0;0.001;0.0;7618;2021-01-16 16:15:30:717
0.129;-9.776;-0.113;0.0;0.001;0.0;7631;2021-01-16 16:15:30:730
0.129;-9.776;-0.113;0.0;0.001;0.0;7638;2021-01-16 16:15:30:737
0.132;-9.783;-0.11;0.0;0.0;0.0;7649;2021-01-16 16:15:30:748
0.132;-9.783;-0.11;0.0;0.0;0.0;7658;2021-01-16 16:15:30:757
0.132;-9.783;-0.11;0.0;0.0;0.0;7668;2021-01-16 16:15:30:767
0.132;-9.783;-0.11;0.0;0.0;0.0;7678;2021-01-16 16:15:30:777
0.132;-9.783;-0.11;0.0;0.0;0.0;7688;2021-01-16 16:15:30:787
0.132;-9.783;-0.11;0.0;0.0;0.0;7701;2021-01-16 16:15:30:800
0.125;-9.783;-0.127;0.0;0.0;0.0;7710;2021-01-16 16:15:30:809
0.125;-9.783;-0.127;0.0;0.0;0.0;7718;2021-01-16 16:15:30:817
0.125;-9.783;-0.127;0.0;0.0;0.0;7729;2021-01-16 16:15:30:828
0.125;-9.783;-0.127;0.0;0.0;0.0;7739;2021-01-16 16:15:30:838
0.125;-9.783;-0.127;0.0;0.0;0.0;7748;2021-01-16 16:15:30:847
0.125;-9.783;-0.127;0.0;0.0;0.0;7758;2021-01-16 16:15:30:857
0.125;-9.785;-0.132;0.0;0.0;0.0;7768;2021-01-16 16:15:30:867
0.125;-9.785;-0.132;0.0;0.0;0.0;7779;2021-01-16 16:15:30:878
0.125;-9.785;-0.132;0.0;0.0;0.0;7788;2021-01-16 16:15:30:887
0.125;-9.785;-0.132;0.0;0.0;0.0;7798;2021-01-16 16:15:30:897
0.125;-9.785;-0.132;0.0;0.0;0.0;7825;2021-01-16 16:15:30:924
0.125;-9.785;-0.132;0.0;0.0;0.0;7825;2021-01-16 16:15:30:924
0.117;-9.797;-0.129;0.0;0.0;0.0;7828;2021-01-16 16:15:30:927
0.117;-9.797;-0.129;0.0;0.0;0.0;7838;2021-01-16 16:15:30:937
0.117;-9.797;-0.129;0.0;0.0;0.0;7849;2021-01-16 16:15:30:948
0.117;-9.797;-0.129;0.0;0.0;0.0;7858;2021-01-16 16:15:30:957
0.117;-9.797;-0.129;0.0;0.0;0.0;7868;2021-01-16 16:15:30:967
0.117;-9.797;-0.129;0.0;0.0;0.0;7878;2021-01-16 16:15:30:977
0.136;-9.8;-0.129;-0.001;0.0;0.0;7889;2021-01-16 16:15:30:988
0.136;-9.8;-0.129;-0.001;0.0;0.0;7898;2021-01-16 16:15:30:997
0.136;-9.8;-0.129;-0.001;0.0;0.0;7908;2021-01-16 16:15:31:007
0.136;-9.8;-0.129;-0.001;0.0;0.0;7918;2021-01-16 16:15:31:017
0.136;-9.8;-0.129;-0.001;0.0;0.0;7928;2021-01-16 16:15:31:027
0.136;-9.8;-0.129;-0.001;0.0;0.0;7938;2021-01-16 16:15:31:037
0.136;-9.785;-0.127;-0.001;0.0;0.0;7948;2021-01-16 16:15:31:047
0.129;-9.785;-0.127;-0.001;0.0;0.0;7958;2021-01-16 16:15:31:057
0.129;-9.785;-0.127;-0.001;0.0;0.0;7968;2021-01-16 16:15:31:067
0.129;-9.785;-0.127;-0.001;0.0;0.0;7979;2021-01-16 16:15:31:078
0.129;-9.785;-0.127;-0.001;0.0;0.0;7988;2021-01-16 16:15:31:087
0.129;-9.785;-0.127;-0.001;0.0;0.0;7998;2021-01-16 16:15:31:097
0.127;-9.79;-0.125;0.0;0.001;0.0;8008;2021-01-16 16:15:31:107
0.127;-9.79;-0.125;0.0;0.001;0.0;8018;2021-01-16 16:15:31:117
0.127;-9.79;-0.125;0.0;0.001;0.0;8033;2021-01-16 16:15:31:132
0.127;-9.79;-0.125;0.0;0.001;0.0;8038;2021-01-16 16:15:31:137
0.127;-9.79;-0.125;0.0;0.001;0.0;8048;2021-01-16 16:15:31:147
0.127;-9.79;-0.125;0.0;0.001;0.0;8059;2021-01-16 16:15:31:158
0.122;-9.788;-0.125;0.0;0.001;0.0;8072;2021-01-16 16:15:31:171
0.122;-9.788;-0.125;0.0;0.001;0.0;8078;2021-01-16 16:15:31:177
0.122;-9.788;-0.125;0.0;0.001;0.0;8089;2021-01-16 16:15:31:188
0.122;-9.788;-0.125;0.0;0.001;0.0;8098;2021-01-16 16:15:31:197
0.122;-9.788;-0.125;0.0;0.001;0.0;8108;2021-01-16 16:15:31:207
0.122;-9.788;-0.125;0.0;0.001;0.0;8117;2021-01-16 16:15:31:216
0.129;-9.795;-0.136;0.0;0.0;0.0;8128;2021-01-16 16:15:31:227
0.129;-9.795;-0.136;0.0;0.0;0.0;8139;2021-01-16 16:15:31:238
0.129;-9.795;-0.136;0.0;0.0;0.0;8148;2021-01-16 16:15:31:247
0.129;-9.795;-0.136;0.0;0.0;0.0;8158;2021-01-16 16:15:31:257
0.129;-9.795;-0.136;0.0;0.0;0.0;8168;2021-01-16 16:15:31:267
0.129;-9.795;-0.136;0.0;0.0;0.0;8178;2021-01-16 16:15:31:277
0.113;-9.79;-0.141;0.0;0.0;0.0;8189;2021-01-16 16:15:31:288
0.113;-9.79;-0.141;0.0;0.0;0.0;8201;2021-01-16 16:15:31:300
0.113;-9.79;-0.141;0.0;0.0;0.0;8208;2021-01-16 16:15:31:307
0.113;-9.79;-0.141;0.0;0.0;0.0;8219;2021-01-16 16:15:31:318
0.113;-9.79;-0.141;0.0;0.0;0.0;8230;2021-01-16 16:15:31:329
0.113;-9.79;-0.141;0.0;0.0;0.0;8238;2021-01-16 16:15:31:337
0.125;-9.793;-0.134;0.0;0.0;0.0;8248;2021-01-16 16:15:31:347
0.125;-9.793;-0.134;0.0;0.0;0.0;8258;2021-01-16 16:15:31:357
0.125;-9.793;-0.134;0.0;0.0;0.0;8268;2021-01-16 16:15:31:367
0.125;-9.793;-0.134;0.0;0.0;0.0;8278;2021-01-16 16:15:31:377
0.125;-9.793;-0.134;0.0;0.0;0.0;8288;2021-01-16 16:15:31:387
0.125;-9.793;-0.134;0.0;0.0;0.0;8299;2021-01-16 16:15:31:398
0.148;-9.8;-0.129;0.0;0.0;0.0;8309;2021-01-16 16:15:31:408
0.148;-9.8;-0.129;0.0;0.0;0.0;8319;2021-01-16 16:15:31:418
0.148;-9.8;-0.129;0.0;0.0;0.0;8328;2021-01-16 16:15:31:427
0.148;-9.8;-0.129;0.0;0.0;0.0;8339;2021-01-16 16:15:31:438
0.148;-9.8;-0.129;0.0;0.0;0.0;8350;2021-01-16 16:15:31:449
0.148;-9.8;-0.129;0.0;0.0;0.0;8358;2021-01-16 16:15:31:457
0.122;-9.795;-0.136;0.0;0.0;0.0;8368;2021-01-16 16:15:31:467
0.122;-9.795;-0.136;0.0;0.0;0.0;8378;2021-01-16 16:15:31:477
0.122;-9.795;-0.136;0.0;0.0;0.0;8389;2021-01-16 16:15:31:488
0.122;-9.795;-0.136;0.0;0.0;0.0;8399;2021-01-16 16:15:31:498
0.122;-9.795;-0.136;0.0;0.0;0.0;8408;2021-01-16 16:15:31:507
0.122;-9.795;-0.136;0.0;0.0;0.0;8418;2021-01-16 16:15:31:517
0.139;-9.79;-0.105;0.0;0.0;0.0;8428;2021-01-16 16:15:31:527
0.139;-9.79;-0.105;0.0;0.0;0.0;8438;2021-01-16 16:15:31:537
0.139;-9.79;-0.105;0.0;0.0;0.0;8449;2021-01-16 16:15:31:548
0.139;-9.79;-0.105;0.0;0.0;0.0;8458;2021-01-16 16:15:31:557
0.139;-9.79;-0.105;0.0;0.0;0.0;8468;2021-01-16 16:15:31:567
0.139;-9.79;-0.105;0.0;0.0;0.0;8478;2021-01-16 16:15:31:577
0.125;-9.8;-0.134;0.0;0.0;0.0;8489;2021-01-16 16:15:31:588
0.125;-9.8;-0.134;0.0;0.0;0.0;8498;2021-01-16 16:15:31:597
0.125;-9.8;-0.134;0.0;0.0;0.0;8508;2021-01-16 16:15:31:607
0.125;-9.8;-0.134;0.0;0.0;0.0;8518;2021-01-16 16:15:31:617
0.125;-9.8;-0.134;0.0;0.0;0.0;8528;2021-01-16 16:15:31:627
0.125;-9.8;-0.134;0.0;0.0;0.0;8538;2021-01-16 16:15:31:637
0.125;-9.783;-0.125;0.0;0.0;0.0;8548;2021-01-16 16:15:31:647
0.125;-9.783;-0.125;0.0;0.0;0.0;8564;2021-01-16 16:15:31:663
0.125;-9.783;-0.125;0.0;0.0;0.0;8568;2021-01-16 16:15:31:667
0.125;-9.783;-0.125;0.0;0.0;0.0;8578;2021-01-16 16:15:31:677
0.125;-9.783;-0.125;0.0;0.0;0.0;8588;2021-01-16 16:15:31:687
0.125;-9.783;-0.125;0.0;0.0;0.0;8598;2021-01-16 16:15:31:697
0.129;-9.79;-0.134;0.0;0.0;0.0;8608;2021-01-16 16:15:31:707
0.129;-9.79;-0.134;0.0;0.0;0.0;8619;2021-01-16 16:15:31:718
0.129;-9.79;-0.134;0.0;0.0;0.0;8633;2021-01-16 16:15:31:732
0.129;-9.79;-0.134;0.0;0.0;0.0;8645;2021-01-16 16:15:31:744
0.129;-9.79;-0.134;0.0;0.0;0.0;8648;2021-01-16 16:15:31:747
0.129;-9.79;-0.134;0.0;0.0;0.0;8658;2021-01-16 16:15:31:757
0.117;-9.783;-0.136;0.0;0.0;0.0;8668;2021-01-16 16:15:31:767
0.117;-9.783;-0.136;0.0;0.0;0.0;8679;2021-01-16 16:15:31:778
0.117;-9.783;-0.136;0.0;0.0;0.0;8689;2021-01-16 16:15:31:788
0.117;-9.783;-0.136;0.0;0.0;0.0;8698;2021-01-16 16:15:31:797
0.117;-9.783;-0.136;0.0;0.0;0.0;8708;2021-01-16 16:15:31:807
0.117;-9.783;-0.136;0.0;0.0;0.0;8718;2021-01-16 16:15:31:817
0.11;-9.766;-0.136;0.0;-0.001;0.0;8728;2021-01-16 16:15:31:827
0.11;-9.766;-0.136;0.0;-0.001;0.0;8738;2021-01-16 16:15:31:837
0.11;-9.766;-0.136;0.0;-0.001;0.0;8748;2021-01-16 16:15:31:847
0.11;-9.766;-0.136;0.0;-0.001;0.0;8759;2021-01-16 16:15:31:858
0.11;-9.766;-0.136;0.0;-0.001;0.0;8768;2021-01-16 16:15:31:867
0.11;-9.766;-0.136;0.0;-0.001;0.0;8779;2021-01-16 16:15:31:878
0.132;-9.795;-0.141;0.0;-0.001;0.0;8791;2021-01-16 16:15:31:890
0.132;-9.795;-0.141;0.0;-0.001;0.0;8798;2021-01-16 16:15:31:897
0.132;-9.795;-0.141;0.0;-0.001;0.0;8808;2021-01-16 16:15:31:907
0.132;-9.795;-0.141;0.0;-0.001;0.0;8820;2021-01-16 16:15:31:919
0.132;-9.795;-0.141;0.0;-0.001;0.0;8828;2021-01-16 16:15:31:927
0.132;-9.795;-0.141;0.0;-0.001;0.0;8838;2021-01-16 16:15:31:937
0.117;-9.788;-0.139;0.0;0.0;0.0;8850;2021-01-16 16:15:31:949
0.117;-9.788;-0.139;0.0;0.0;0.0;8858;2021-01-16 16:15:31:957
0.117;-9.788;-0.139;0.0;0.0;0.0;8868;2021-01-16 16:15:31:967
0.117;-9.788;-0.139;0.0;0.0;0.0;8878;2021-01-16 16:15:31:977
0.117;-9.788;-0.139;0.0;0.0;0.0;8889;2021-01-16 16:15:31:988
0.117;-9.788;-0.139;0.0;0.0;0.0;8898;2021-01-16 16:15:31:997
0.113;-9.797;-0.153;0.0;0.0;0.0;8908;2021-01-16 16:15:32:007
0.113;-9.797;-0.153;0.0;0.0;0.0;8918;2021-01-16 16:15:32:017
0.113;-9.797;-0.153;0.0;0.0;0.0;8928;2021-01-16 16:15:32:027
0.113;-9.797;-0.153;0.0;0.0;0.0;8939;2021-01-16 16:15:32:038
0.113;-9.797;-0.153;0.0;0.0;0.0;8948;2021-01-16 16:15:32:047
0.113;-9.797;-0.153;0.0;0.0;0.0;8958;2021-01-16 16:15:32:057
0.129;-9.788;-0.141;0.0;0.0;0.0;8976;2021-01-16 16:15:32:075
0.129;-9.788;-0.141;0.0;0.0;0.0;8977;2021-01-16 16:15:32:076
0.129;-9.788;-0.141;0.0;0.0;0.0;8988;2021-01-16 16:15:32:087
0.129;-9.788;-0.141;0.0;0.0;0.0;8999;2021-01-16 16:15:32:098
0.129;-9.788;-0.141;0.0;0.0;0.0;9008;2021-01-16 16:15:32:107
0.129;-9.788;-0.141;0.0;0.0;0.0;9018;2021-01-16 16:15:32:117
0.136;-9.778;-0.141;0.0;0.0;0.0;9028;2021-01-16 16:15:32:127
0.136;-9.778;-0.141;0.0;0.0;0.0;9038;2021-01-16 16:15:32:137
0.136;-9.778;-0.141;0.0;0.0;0.0;9048;2021-01-16 16:15:32:147
0.136;-9.778;-0.141;0.0;0.0;0.0;9059;2021-01-16 16:15:32:158
0.136;-9.778;-0.141;0.0;0.0;0.0;9068;2021-01-16 16:15:32:167
0.136;-9.778;-0.141;0.0;0.0;0.0;9078;2021-01-16 16:15:32:177
0.134;-9.805;-0.139;0.0;0.0;0.0;9088;2021-01-16 16:15:32:187
0.134;-9.805;-0.139;0.0;0.0;0.0;9098;2021-01-16 16:15:32:197
0.134;-9.805;-0.139;0.0;0.0;0.0;9108;2021-01-16 16:15:32:207
0.134;-9.805;-0.139;0.0;0.0;0.0;9118;2021-01-16 16:15:32:217
0.134;-9.805;-0.139;0.0;0.0;0.0;9128;2021-01-16 16:15:32:227
0.134;-9.805;-0.139;0.0;0.0;0.0;9138;2021-01-16 16:15:32:237
0.122;-9.776;-0.153;0.0;0.0;0.0;9152;2021-01-16 16:15:32:251
0.122;-9.776;-0.153;0.0;0.0;0.0;9158;2021-01-16 16:15:32:257
0.122;-9.776;-0.153;0.0;0.0;0.0;9168;2021-01-16 16:15:32:267
0.122;-9.776;-0.153;0.0;0.0;0.0;9180;2021-01-16 16:15:32:279
0.122;-9.776;-0.153;0.0;0.0;0.0;9188;2021-01-16 16:15:32:287
0.122;-9.776;-0.153;0.0;0.0;0.0;9206;2021-01-16 16:15:32:305
0.122;-9.776;-0.153;0.0;0.0;0.0;9208;2021-01-16 16:15:32:307
0.132;-9.805;-0.148;0.0;0.0;0.0;9219;2021-01-16 16:15:32:318
0.132;-9.805;-0.148;0.0;0.0;0.0;9228;2021-01-16 16:15:32:327
0.132;-9.805;-0.148;0.0;0.0;0.0;9238;2021-01-16 16:15:32:337
0.132;-9.805;-0.148;0.0;0.0;0.0;9251;2021-01-16 16:15:32:350
0.132;-9.805;-0.148;0.0;0.0;0.0;9258;2021-01-16 16:15:32:357
0.129;-9.797;-0.144;0.0;0.0;0.0;9269;2021-01-16 16:15:32:368
0.129;-9.797;-0.144;0.0;0.0;0.0;9278;2021-01-16 16:15:32:377
0.129;-9.797;-0.144;0.0;0.0;0.0;9289;2021-01-16 16:15:32:388
0.129;-9.797;-0.144;0.0;0.0;0.0;9298;2021-01-16 16:15:32:397
0.129;-9.797;-0.144;0.0;0.0;0.0;9308;2021-01-16 16:15:32:407
0.129;-9.797;-0.144;0.0;0.0;0.0;9320;2021-01-16 16:15:32:419
0.12;-9.788;-0.146;0.0;0.0;0.0;9329;2021-01-16 16:15:32:428
0.12;-9.788;-0.146;0.0;0.0;0.0;9338;2021-01-16 16:15:32:437
0.12;-9.788;-0.146;0.0;0.0;0.0;9349;2021-01-16 16:15:32:448
0.12;-9.788;-0.146;0.0;0.0;0.0;9359;2021-01-16 16:15:32:458
0.12;-9.788;-0.146;0.0;0.0;0.0;9368;2021-01-16 16:15:32:467
0.12;-9.788;-0.146;0.0;0.0;0.0;9381;2021-01-16 16:15:32:480
0.122;-9.797;-0.134;0.0;0.0;0.0;9388;2021-01-16 16:15:32:487
0.122;-9.797;-0.134;0.0;0.0;0.0;9398;2021-01-16 16:15:32:497
0.122;-9.797;-0.134;0.0;0.0;0.0;9410;2021-01-16 16:15:32:509
0.122;-9.797;-0.134;0.0;0.0;0.0;9418;2021-01-16 16:15:32:517
0.122;-9.797;-0.134;0.0;0.0;0.0;9428;2021-01-16 16:15:32:527
0.122;-9.797;-0.134;0.0;0.0;0.0;9438;2021-01-16 16:15:32:537
0.125;-9.781;-0.158;0.0;0.0;0.0;9449;2021-01-16 16:15:32:548
0.125;-9.781;-0.158;0.0;0.0;0.0;9459;2021-01-16 16:15:32:558
0.125;-9.781;-0.158;0.0;0.0;0.0;9468;2021-01-16 16:15:32:567
0.125;-9.781;-0.158;0.0;0.0;0.0;9478;2021-01-16 16:15:32:577
0.125;-9.781;-0.158;0.0;0.0;0.0;9488;2021-01-16 16:15:32:587
0.125;-9.781;-0.158;0.0;0.0;0.0;9498;2021-01-16 16:15:32:597
0.144;-9.788;-0.146;0.0;0.0;0.0;9508;2021-01-16 16:15:32:607
0.144;-9.788;-0.146;0.0;0.0;0.0;9520;2021-01-16 16:15:32:619
0.144;-9.788;-0.146;0.0;0.0;0.0;9528;2021-01-16 16:15:32:627
0.144;-9.788;-0.146;0.0;0.0;0.0;9538;2021-01-16 16:15:32:637
0.144;-9.788;-0.146;0.0;0.0;0.0;9549;2021-01-16 16:15:32:648
0.144;-9.788;-0.146;0.0;0.0;0.0;9558;2021-01-16 16:15:32:657
0.132;-9.797;-0.141;0.0;0.0;0.0;9568;2021-01-16 16:15:32:667
0.132;-9.797;-0.141;0.0;0.0;0.0;9578;2021-01-16 16:15:32:677
0.132;-9.797;-0.141;0.0;0.0;0.0;9589;2021-01-16 16:15:32:688
0.132;-9.797;-0.141;0.0;0.0;0.0;9598;2021-01-16 16:15:32:697
0.132;-9.797;-0.141;0.0;0.0;0.0;9609;2021-01-16 16:15:32:708
0.132;-9.797;-0.141;0.0;0.0;0.0;9618;2021-01-16 16:15:32:717
0.117;-9.788;-0.132;0.0;0.0;0.0;9628;2021-01-16 16:15:32:727
0.117;-9.788;-0.132;0.0;0.0;0.0;9639;2021-01-16 16:15:32:738
0.117;-9.788;-0.132;0.0;0.0;0.0;9649;2021-01-16 16:15:32:748
0.117;-9.788;-0.132;0.0;0.0;0.0;9658;2021-01-16 16:15:32:757
0.117;-9.788;-0.132;0.0;0.0;0.0;9670;2021-01-16 16:15:32:769
0.117;-9.788;-0.132;0.0;0.0;0.0;9678;2021-01-16 16:15:32:777
0.122;-9.795;-0.132;0.0;0.001;0.0;9688;2021-01-16 16:15:32:787
0.122;-9.795;-0.132;0.0;0.001;0.0;9698;2021-01-16 16:15:32:797
0.122;-9.795;-0.132;0.0;0.001;0.0;9708;2021-01-16 16:15:32:807
0.122;-9.795;-0.132;0.0;0.001;0.0;9718;2021-01-16 16:15:32:817
0.122;-9.795;-0.132;0.0;0.001;0.0;9728;2021-01-16 16:15:32:827
0.122;-9.795;-0.132;0.0;0.001;0.0;9744;2021-01-16 16:15:32:843
0.125;-9.776;-0.151;0.0;0.001;0.0;9749;2021-01-16 16:15:32:848
0.125;-9.776;-0.151;0.0;0.001;0.0;9758;2021-01-16 16:15:32:857
0.125;-9.776;-0.151;0.0;0.001;0.0;9768;2021-01-16 16:15:32:867
0.125;-9.776;-0.151;0.0;0.001;0.0;9779;2021-01-16 16:15:32:878
0.125;-9.776;-0.151;0.0;0.001;0.0;9788;2021-01-16 16:15:32:887
0.125;-9.776;-0.151;0.0;0.001;0.0;9798;2021-01-16 16:15:32:897
0.132;-9.797;-0.127;0.0;0.0;0.0;9808;2021-01-16 16:15:32:907
0.132;-9.797;-0.127;0.0;0.0;0.0;9818;2021-01-16 16:15:32:917
0.132;-9.797;-0.127;0.0;0.0;0.0;9828;2021-01-16 16:15:32:927
0.132;-9.797;-0.127;0.0;0.0;0.0;9838;2021-01-16 16:15:32:937
0.132;-9.797;-0.127;0.0;0.0;0.0;9849;2021-01-16 16:15:32:948
0.132;-9.797;-0.127;0.0;0.0;0.0;9859;2021-01-16 16:15:32:958
0.139;-9.802;-0.156;0.0;0.0;0.0;9868;2021-01-16 16:15:32:967
0.139;-9.802;-0.156;0.0;0.0;0.0;9879;2021-01-16 16:15:32:978
0.139;-9.802;-0.156;0.0;0.0;0.0;9888;2021-01-16 16:15:32:987
0.139;-9.802;-0.156;0.0;0.0;0.0;9899;2021-01-16 16:15:32:998
0.139;-9.802;-0.156;0.0;0.0;0.0;9909;2021-01-16 16:15:33:008
0.139;-9.802;-0.156;0.0;0.0;0.0;9918;2021-01-16 16:15:33:017
0.139;-9.795;-0.146;0.0;0.0;0.0;9928;2021-01-16 16:15:33:027
0.139;-9.795;-0.146;0.0;0.0;0.0;9938;2021-01-16 16:15:33:037
0.139;-9.795;-0.146;0.0;0.0;0.0;9948;2021-01-16 16:15:33:047
0.139;-9.795;-0.146;0.0;0.0;0.0;9958;2021-01-16 16:15:33:057
0.139;-9.795;-0.146;0.0;0.0;0.0;9970;2021-01-16 16:15:33:069
0.139;-9.795;-0.146;0.0;0.0;0.0;9978;2021-01-16 16:15:33:077
0.139;-9.802;-0.129;0.0;0.0;0.0;9988;2021-01-16 16:15:33:087
0.139;-9.802;-0.129;0.0;0.0;0.0;9999;2021-01-16 16:15:33:098
0.139;-9.802;-0.129;0.0;0.0;0.0;10008;2021-01-16 16:15:33:107
0.139;-9.802;-0.129;0.0;0.0;0.0;10018;2021-01-16 16:15:33:117
0.139;-9.802;-0.129;0.0;0.0;0.0;10029;2021-01-16 16:15:33:128
0.139;-9.802;-0.129;0.0;0.0;0.0;10038;2021-01-16 16:15:33:137
0.129;-9.793;-0.139;0.0;0.0;0.0;10048;2021-01-16 16:15:33:147
0.129;-9.793;-0.139;0.0;0.0;0.0;10058;2021-01-16 16:15:33:157
0.129;-9.793;-0.139;0.0;0.0;0.0;10082;2021-01-16 16:15:33:181
0.129;-9.793;-0.139;0.0;0.0;0.0;10083;2021-01-16 16:15:33:182
0.129;-9.793;-0.139;0.0;0.0;0.0;10089;2021-01-16 16:15:33:188
0.129;-9.793;-0.139;0.0;0.0;0.0;10103;2021-01-16 16:15:33:202
0.12;-9.788;-0.122;0.0;0.0;0.0;10109;2021-01-16 16:15:33:208
0.12;-9.788;-0.122;0.0;0.0;0.0;10120;2021-01-16 16:15:33:219
0.12;-9.788;-0.122;0.0;0.0;0.0;10129;2021-01-16 16:15:33:228
0.12;-9.788;-0.122;0.0;0.0;0.0;10138;2021-01-16 16:15:33:237
0.12;-9.788;-0.122;0.0;0.0;0.0;10148;2021-01-16 16:15:33:247
0.139;-9.802;-0.132;0.0;0.0;0.0;10158;2021-01-16 16:15:33:257
0.139;-9.802;-0.132;0.0;0.0;0.0;10168;2021-01-16 16:15:33:267
0.139;-9.802;-0.132;0.0;0.0;0.0;10181;2021-01-16 16:15:33:280
0.139;-9.802;-0.132;0.0;0.0;0.0;10188;2021-01-16 16:15:33:287
0.139;-9.802;-0.132;0.0;0.0;0.0;10198;2021-01-16 16:15:33:297
0.139;-9.802;-0.132;0.0;0.0;0.0;10208;2021-01-16 16:15:33:307
0.139;-9.802;-0.132;0.0;0.0;0.0;10219;2021-01-16 16:15:33:318
0.122;-9.783;-0.156;0.0;0.0;0.0;10229;2021-01-16 16:15:33:328
0.122;-9.783;-0.156;0.0;0.0;0.0;10238;2021-01-16 16:15:33:337
0.122;-9.783;-0.156;0.0;0.0;0.0;10248;2021-01-16 16:15:33:347
0.122;-9.783;-0.156;0.0;0.0;0.0;10259;2021-01-16 16:15:33:358
0.122;-9.783;-0.156;0.0;0.0;0.0;10268;2021-01-16 16:15:33:367
0.122;-9.783;-0.156;0.0;0.0;0.0;10278;2021-01-16 16:15:33:377
0.117;-9.783;-0.139;0.0;0.0;0.0;10288;2021-01-16 16:15:33:387
0.117;-9.783;-0.139;0.0;0.0;0.0;10298;2021-01-16 16:15:33:397
0.117;-9.783;-0.139;0.0;0.0;0.0;10308;2021-01-16 16:15:33:407
0.117;-9.783;-0.139;0.0;0.0;0.0;10318;2021-01-16 16:15:33:417
0.117;-9.783;-0.139;0.0;0.0;0.0;10328;2021-01-16 16:15:33:427
0.117;-9.783;-0.139;0.0;0.0;0.0;10338;2021-01-16 16:15:33:437
0.125;-9.785;-0.139;0.0;0.0;0.0;10348;2021-01-16 16:15:33:447
0.125;-9.785;-0.139;0.0;0.0;0.0;10359;2021-01-16 16:15:33:458
0.125;-9.785;-0.139;0.0;0.0;0.0;10368;2021-01-16 16:15:33:467
0.125;-9.785;-0.139;0.0;0.0;0.0;10379;2021-01-16 16:15:33:478
0.125;-9.785;-0.139;0.0;0.0;0.0;10388;2021-01-16 16:15:33:487
0.125;-9.785;-0.139;0.0;0.0;0.0;10398;2021-01-16 16:15:33:497
0.122;-9.79;-0.146;0.0;0.0;0.0;10408;2021-01-16 16:15:33:507
0.122;-9.79;-0.146;0.0;0.0;0.0;10423;2021-01-16 16:15:33:522
0.122;-9.79;-0.146;0.0;0.0;0.0;10428;2021-01-16 16:15:33:527
0.122;-9.79;-0.146;0.0;0.0;0.0;10438;2021-01-16 16:15:33:537
0.122;-9.79;-0.146;0.0;0.0;0.0;10448;2021-01-16 16:15:33:547
0.122;-9.79;-0.146;0.0;0.0;0.0;10458;2021-01-16 16:15:33:557
0.125;-9.795;-0.132;0.0;0.0;0.0;10468;2021-01-16 16:15:33:567
0.125;-9.795;-0.132;0.0;0.0;0.0;10478;2021-01-16 16:15:33:577
0.125;-9.795;-0.132;0.0;0.0;0.0;10488;2021-01-16 16:15:33:587
0.125;-9.795;-0.132;0.0;0.0;0.0;10498;2021-01-16 16:15:33:597
0.125;-9.795;-0.132;0.0;0.0;0.0;10509;2021-01-16 16:15:33:608
0.125;-9.795;-0.132;0.0;0.0;0.0;10518;2021-01-16 16:15:33:617
0.125;-9.778;-0.148;0.0;0.0;0.0;10529;2021-01-16 16:15:33:628
0.125;-9.778;-0.148;0.0;0.0;0.0;10538;2021-01-16 16:15:33:637
0.125;-9.778;-0.148;0.0;0.0;0.0;10548;2021-01-16 16:15:33:647
0.125;-9.778;-0.148;0.0;0.0;0.0;10560;2021-01-16 16:15:33:659
0.125;-9.778;-0.148;0.0;0.0;0.0;10568;2021-01-16 16:15:33:667
0.125;-9.778;-0.148;0.0;0.0;0.0;10578;2021-01-16 16:15:33:677
0.12;-9.795;-0.153;0.0;0.0;0.0;10588;2021-01-16 16:15:33:687
0.12;-9.795;-0.153;0.0;0.0;0.0;10599;2021-01-16 16:15:33:698
0.12;-9.795;-0.153;0.0;0.0;0.0;10610;2021-01-16 16:15:33:709
0.12;-9.795;-0.153;0.0;0.0;0.0;10618;2021-01-16 16:15:33:717
0.12;-9.795;-0.153;0.0;0.0;0.0;10628;2021-01-16 16:15:33:727
0.12;-9.795;-0.153;0.0;0.0;0.0;10639;2021-01-16 16:15:33:738
0.127;-9.8;-0.129;0.0;0.0;0.0;10649;2021-01-16 16:15:33:748
0.127;-9.8;-0.129;0.0;0.0;0.0;10658;2021-01-16 16:15:33:757
0.127;-9.8;-0.129;0.0;0.0;0.0;10668;2021-01-16 16:15:33:767
0.127;-9.8;-0.129;0.0;0.0;0.0;10679;2021-01-16 16:15:33:778
0.127;-9.8;-0.129;0.0;0.0;0.0;10688;2021-01-16 16:15:33:787
0.127;-9.8;-0.129;0.0;0.0;0.0;10698;2021-01-16 16:15:33:797
0.132;-9.785;-0.144;0.0;0.0;0.0;10708;2021-01-16 16:15:33:807
0.132;-9.785;-0.144;0.0;0.0;0.0;10719;2021-01-16 16:15:33:818
0.132;-9.785;-0.144;0.0;0.0;0.0;10728;2021-01-16 16:15:33:827
0.132;-9.785;-0.144;0.0;0.0;0.0;10738;2021-01-16 16:15:33:837
0.132;-9.785;-0.144;0.0;0.0;0.0;10749;2021-01-16 16:15:33:848
0.132;-9.785;-0.144;0.0;0.0;0.0;10759;2021-01-16 16:15:33:858
0.139;-9.781;-0.148;0.0;0.0;0.0;10769;2021-01-16 16:15:33:868
0.139;-9.781;-0.148;0.0;0.0;0.0;10778;2021-01-16 16:15:33:877
0.139;-9.781;-0.148;0.0;0.0;0.0;10788;2021-01-16 16:15:33:887
0.139;-9.781;-0.148;0.0;0.0;0.0;10798;2021-01-16 16:15:33:897
0.139;-9.781;-0.148;0.0;0.0;0.0;10809;2021-01-16 16:15:33:908
0.139;-9.781;-0.148;0.0;0.0;0.0;10818;2021-01-16 16:15:33:917
0.136;-9.8;-0.146;0.0;0.0;0.0;10828;2021-01-16 16:15:33:927
0.136;-9.8;-0.146;0.0;0.0;0.0;10838;2021-01-16 16:15:33:937
0.136;-9.8;-0.146;0.0;0.0;0.0;10848;2021-01-16 16:15:33:947
0.136;-9.8;-0.146;0.0;0.0;0.0;10860;2021-01-16 16:15:33:959
0.136;-9.8;-0.146;0.0;0.0;0.0;10869;2021-01-16 16:15:33:968
0.136;-9.8;-0.146;0.0;0.0;0.0;10878;2021-01-16 16:15:33:977
0.113;-9.793;-0.136;0.0;0.0;0.0;10888;2021-01-16 16:15:33:987
0.113;-9.793;-0.136;0.0;0.0;0.0;10898;2021-01-16 16:15:33:997
0.113;-9.793;-0.136;0.0;0.0;0.0;10910;2021-01-16 16:15:34:009
0.113;-9.793;-0.136;0.0;0.0;0.0;10919;2021-01-16 16:15:34:018
0.113;-9.793;-0.136;0.0;0.0;0.0;10928;2021-01-16 16:15:34:027
0.113;-9.793;-0.136;0.0;0.0;0.0;10938;2021-01-16 16:15:34:037
0.117;-9.783;-0.146;0.0;0.0;0.0;10950;2021-01-16 16:15:34:049
0.117;-9.783;-0.146;0.0;0.0;0.0;10958;2021-01-16 16:15:34:057
0.117;-9.783;-0.146;0.0;0.0;0.0;10969;2021-01-16 16:15:34:068
0.117;-9.783;-0.146;0.0;0.0;0.0;10978;2021-01-16 16:15:34:077
0.117;-9.783;-0.146;0.0;0.0;0.0;10988;2021-01-16 16:15:34:087
0.117;-9.783;-0.146;0.0;0.0;0.0;10999;2021-01-16 16:15:34:098
0.117;-9.797;-0.129;0.0;0.0;0.0;11012;2021-01-16 16:15:34:111
0.117;-9.797;-0.129;0.0;0.0;0.0;11018;2021-01-16 16:15:34:117
0.117;-9.797;-0.129;0.0;0.0;0.0;11028;2021-01-16 16:15:34:127
0.117;-9.797;-0.129;0.0;0.0;0.0;11038;2021-01-16 16:15:34:137
0.117;-9.797;-0.129;0.0;0.0;0.0;11048;2021-01-16 16:15:34:147
0.117;-9.797;-0.129;0.0;0.0;0.0;11058;2021-01-16 16:15:34:157
0.136;-9.795;-0.134;0.0;0.0;0.0;11070;2021-01-16 16:15:34:169
0.136;-9.795;-0.134;0.0;0.0;0.0;11078;2021-01-16 16:15:34:177
0.136;-9.795;-0.134;0.0;0.0;0.0;11088;2021-01-16 16:15:34:187
0.136;-9.795;-0.134;0.0;0.0;0.0;11098;2021-01-16 16:15:34:197
0.136;-9.795;-0.134;0.0;0.0;0.0;11108;2021-01-16 16:15:34:207
0.136;-9.795;-0.134;0.0;0.0;0.0;11119;2021-01-16 16:15:34:218
0.132;-9.781;-0.148;0.0;0.0;0.0;11136;2021-01-16 16:15:34:235
0.132;-9.781;-0.148;0.0;0.0;0.0;11138;2021-01-16 16:15:34:237
0.132;-9.781;-0.148;0.0;0.0;0.0;11148;2021-01-16 16:15:34:247
0.132;-9.781;-0.148;0.0;0.0;0.0;11159;2021-01-16 16:15:34:258
0.132;-9.781;-0.148;0.0;0.0;0.0;11169;2021-01-16 16:15:34:268
0.132;-9.781;-0.148;0.0;0.0;0.0;11178;2021-01-16 16:15:34:277
0.156;-9.795;-0.117;0.0;0.0;0.0;11189;2021-01-16 16:15:34:288
0.156;-9.795;-0.117;0.0;0.0;0.0;11199;2021-01-16 16:15:34:298
0.156;-9.795;-0.117;0.0;0.0;0.0;11209;2021-01-16 16:15:34:308
0.156;-9.795;-0.117;0.0;0.0;0.0;11218;2021-01-16 16:15:34:317
0.156;-9.795;-0.117;0.0;0.0;0.0;11232;2021-01-16 16:15:34:331
0.156;-9.795;-0.117;0.0;0.0;0.0;11239;2021-01-16 16:15:34:338
0.139;-9.79;-0.141;0.0;0.0;0.0;11250;2021-01-16 16:15:34:349
0.139;-9.79;-0.141;0.0;0.0;0.0;11261;2021-01-16 16:15:34:360
0.139;-9.79;-0.141;0.0;0.0;0.0;11269;2021-01-16 16:15:34:368
0.139;-9.79;-0.141;0.0;0.0;0.0;11279;2021-01-16 16:15:34:378
0.139;-9.79;-0.141;0.0;0.0;0.0;11290;2021-01-16 16:15:34:389
0.139;-9.79;-0.141;0.0;0.0;0.0;11298;2021-01-16 16:15:34:397
0.125;-9.795;-0.134;0.0;0.0;0.0;11309;2021-01-16 16:15:34:408
0.125;-9.795;-0.134;0.0;0.0;0.0;11318;2021-01-16 16:15:34:417
0.125;-9.795;-0.134;0.0;0.0;0.0;11328;2021-01-16 16:15:34:427
0.125;-9.795;-0.134;0.0;0.0;0.0;11338;2021-01-16 16:15:34:437
0.125;-9.795;-0.134;0.0;0.0;0.0;11348;2021-01-16 16:15:34:447
0.125;-9.795;-0.134;0.0;0.0;0.0;11358;2021-01-16 16:15:34:457
0.144;-9.79;-0.117;0.0;0.0;0.0;11371;2021-01-16 16:15:34:470
0.144;-9.79;-0.117;0.0;0.0;0.0;11378;2021-01-16 16:15:34:477
0.144;-9.79;-0.117;0.0;0.0;0.0;11388;2021-01-16 16:15:34:487
0.144;-9.79;-0.117;0.0;0.0;0.0;11398;2021-01-16 16:15:34:497
0.144;-9.79;-0.117;0.0;0.0;0.0;11409;2021-01-16 16:15:34:508
0.144;-9.79;-0.117;0.0;0.0;0.0;11418;2021-01-16 16:15:34:517
0.132;-9.802;-0.146;0.0;0.0;0.0;11430;2021-01-16 16:15:34:529
0.132;-9.802;-0.146;0.0;0.0;0.0;11438;2021-01-16 16:15:34:537
0.132;-9.802;-0.146;0.0;0.0;0.0;11448;2021-01-16 16:15:34:547
0.132;-9.802;-0.146;0.0;0.0;0.0;11459;2021-01-16 16:15:34:558
0.132;-9.802;-0.146;0.0;0.0;0.0;11469;2021-01-16 16:15:34:568
0.132;-9.802;-0.146;0.0;0.0;0.0;11478;2021-01-16 16:15:34:577
0.125;-9.781;-0.132;0.001;0.001;0.0;11488;2021-01-16 16:15:34:587
0.125;-9.781;-0.132;0.001;0.001;0.0;11498;2021-01-16 16:15:34:597
0.125;-9.781;-0.132;0.001;0.001;0.0;11509;2021-01-16 16:15:34:608
0.125;-9.781;-0.132;0.001;0.001;0.0;11518;2021-01-16 16:15:34:617
0.125;-9.781;-0.132;0.001;0.001;0.0;11528;2021-01-16 16:15:34:627
0.125;-9.781;-0.132;0.001;0.001;0.0;11538;2021-01-16 16:15:34:637
0.113;-9.788;-0.139;0.001;0.001;0.0;11548;2021-01-16 16:15:34:647
0.113;-9.788;-0.139;0.001;0.001;0.0;11559;2021-01-16 16:15:34:658
0.113;-9.788;-0.139;0.001;0.001;0.0;11569;2021-01-16 16:15:34:668
0.113;-9.788;-0.139;0.001;0.001;0.0;11578;2021-01-16 16:15:34:677
0.113;-9.788;-0.139;0.001;0.001;0.0;11588;2021-01-16 16:15:34:687
0.113;-9.788;-0.139;0.001;0.001;0.0;11598;2021-01-16 16:15:34:697
0.117;-9.785;-0.129;0.0;0.0;0.0;11608;2021-01-16 16:15:34:707
0.117;-9.785;-0.129;0.0;0.0;0.0;11618;2021-01-16 16:15:34:717
0.117;-9.785;-0.129;0.0;0.0;0.0;11629;2021-01-16 16:15:34:728
0.117;-9.785;-0.129;0.0;0.0;0.0;11639;2021-01-16 16:15:34:738
0.117;-9.785;-0.129;0.0;0.0;0.0;11648;2021-01-16 16:15:34:747
0.117;-9.785;-0.129;0.0;0.0;0.0;11658;2021-01-16 16:15:34:757
0.115;-9.809;-0.141;0.0;0.0;0.0;11669;2021-01-16 16:15:34:768
0.115;-9.809;-0.141;0.0;0.0;0.0;11678;2021-01-16 16:15:34:777
0.115;-9.809;-0.141;0.0;0.0;0.0;11688;2021-01-16 16:15:34:787
0.115;-9.809;-0.141;0.0;0.0;0.0;11698;2021-01-16 16:15:34:797
0.115;-9.809;-0.141;0.0;0.0;0.0;11708;2021-01-16 16:15:34:807
0.115;-9.809;-0.141;0.0;0.0;0.0;11718;2021-01-16 16:15:34:817
0.134;-9.793;-0.136;0.0;0.001;0.0;11728;2021-01-16 16:15:34:827
0.134;-9.793;-0.136;0.0;0.001;0.0;11739;2021-01-16 16:15:34:838
0.134;-9.793;-0.136;0.0;0.001;0.0;11749;2021-01-16 16:15:34:848
0.134;-9.793;-0.136;0.0;0.001;0.0;11758;2021-01-16 16:15:34:857
0.134;-9.793;-0.136;0.0;0.001;0.0;11768;2021-01-16 16:15:34:867
0.134;-9.793;-0.136;0.0;0.001;0.0;11778;2021-01-16 16:15:34:877
0.122;-9.79;-0.127;0.0;0.001;0.0;11789;2021-01-16 16:15:34:888
0.122;-9.79;-0.127;0.0;0.001;0.0;11800;2021-01-16 16:15:34:899
0.122;-9.79;-0.127;0.0;0.001;0.0;11809;2021-01-16 16:15:34:908
0.122;-9.79;-0.127;0.0;0.001;0.0;11818;2021-01-16 16:15:34:917
0.122;-9.79;-0.127;0.0;0.001;0.0;11828;2021-01-16 16:15:34:927
0.122;-9.79;-0.127;0.0;0.001;0.0;11839;2021-01-16 16:15:34:938
0.12;-9.788;-0.129;0.0;0.0;0.0;11848;2021-01-16 16:15:34:947
0.12;-9.788;-0.129;0.0;0.0;0.0;11858;2021-01-16 16:15:34:957
0.12;-9.788;-0.129;0.0;0.0;0.0;11869;2021-01-16 16:15:34:968
0.12;-9.788;-0.129;0.0;0.0;0.0;11879;2021-01-16 16:15:34:978
0.12;-9.788;-0.129;0.0;0.0;0.0;11889;2021-01-16 16:15:34:988
0.12;-9.788;-0.129;0.0;0.0;0.0;11899;2021-01-16 16:15:34:998
0.125;-9.778;-0.146;0.0;0.0;0.0;11910;2021-01-16 16:15:35:009
0.125;-9.778;-0.146;0.0;0.0;0.0;11918;2021-01-16 16:15:35:017
0.125;-9.778;-0.146;0.0;0.0;0.0;11928;2021-01-16 16:15:35:027
0.125;-9.778;-0.146;0.0;0.0;0.0;11942;2021-01-16 16:15:35:041
0.125;-9.778;-0.146;0.0;0.0;0.0;11950;2021-01-16 16:15:35:049
0.125;-9.778;-0.146;0.0;0.0;0.0;11958;2021-01-16 16:15:35:057
0.122;-9.797;-0.148;0.0;0.0;0.0;11969;2021-01-16 16:15:35:068
0.122;-9.797;-0.148;0.0;0.0;0.0;11978;2021-01-16 16:15:35:077
0.122;-9.797;-0.148;0.0;0.0;0.0;11988;2021-01-16 16:15:35:087
0.122;-9.797;-0.148;0.0;0.0;0.0;11998;2021-01-16 16:15:35:097
0.122;-9.797;-0.148;0.0;0.0;0.0;12008;2021-01-16 16:15:35:107
0.122;-9.797;-0.148;0.0;0.0;0.0;12018;2021-01-16 16:15:35:117
0.125;-9.79;-0.148;0.0;0.0;0.0;12028;2021-01-16 16:15:35:127
0.125;-9.79;-0.148;0.0;0.0;0.0;12038;2021-01-16 16:15:35:137
0.125;-9.79;-0.148;0.0;0.0;0.0;12048;2021-01-16 16:15:35:147
0.125;-9.79;-0.148;0.0;0.0;0.0;12059;2021-01-16 16:15:35:158
0.125;-9.79;-0.148;0.0;0.0;0.0;12068;2021-01-16 16:15:35:167
0.125;-9.79;-0.148;0.0;0.0;0.0;12078;2021-01-16 16:15:35:177
0.127;-9.797;-0.113;0.0;0.0;0.0;12088;2021-01-16 16:15:35:187
0.127;-9.797;-0.113;0.0;0.0;0.0;12098;2021-01-16 16:15:35:197
0.127;-9.797;-0.113;0.0;0.0;0.0;12108;2021-01-16 16:15:35:207
0.127;-9.797;-0.113;0.0;0.0;0.0;12118;2021-01-16 16:15:35:217
0.127;-9.797;-0.113;0.0;0.0;0.0;12128;2021-01-16 16:15:35:227
0.127;-9.797;-0.113;0.0;0.0;0.0;12138;2021-01-16 16:15:35:237
0.125;-9.778;-0.129;0.0;0.0;0.0;12148;2021-01-16 16:15:35:247
0.125;-9.778;-0.129;0.0;0.0;0.0;12159;2021-01-16 16:15:35:258
0.125;-9.778;-0.129;0.0;0.0;0.0;12168;2021-01-16 16:15:35:267
0.125;-9.778;-0.129;0.0;0.0;0.0;12183;2021-01-16 16:15:35:282
0.125;-9.778;-0.129;0.0;0.0;0.0;12189;2021-01-16 16:15:35:288
0.125;-9.778;-0.129;0.0;0.0;0.0;12198;2021-01-16 16:15:35:297
0.125;-9.797;-0.136;0.0;0.0;0.0;12211;2021-01-16 16:15:35:310
0.125;-9.797;-0.136;0.0;0.0;0.0;12219;2021-01-16 16:15:35:318
0.125;-9.797;-0.136;0.0;0.0;0.0;12228;2021-01-16 16:15:35:327
0.125;-9.797;-0.136;0.0;0.0;0.0;12239;2021-01-16 16:15:35:338
0.125;-9.797;-0.136;0.0;0.0;0.0;12249;2021-01-16 16:15:35:348
0.125;-9.797;-0.136;0.0;0.0;0.0;12258;2021-01-16 16:15:35:357
0.127;-9.785;-0.125;0.0;0.0;0.0;12270;2021-01-16 16:15:35:369
0.127;-9.785;-0.125;0.0;0.0;0.0;12279;2021-01-16 16:15:35:378
0.127;-9.785;-0.125;0.0;0.0;0.0;12288;2021-01-16 16:15:35:387
0.127;-9.785;-0.125;0.0;0.0;0.0;12299;2021-01-16 16:15:35:398
0.127;-9.785;-0.125;0.0;0.0;0.0;12309;2021-01-16 16:15:35:408
0.127;-9.785;-0.125;0.0;0.0;0.0;12318;2021-01-16 16:15:35:417
0.136;-9.805;-0.134;0.0;-0.001;0.0;12328;2021-01-16 16:15:35:427
0.136;-9.805;-0.134;0.0;-0.001;0.0;12338;2021-01-16 16:15:35:437
0.136;-9.805;-0.134;0.0;-0.001;0.0;12349;2021-01-16 16:15:35:448
0.136;-9.805;-0.134;0.0;-0.001;0.0;12358;2021-01-16 16:15:35:457
0.136;-9.805;-0.134;0.0;-0.001;0.0;12371;2021-01-16 16:15:35:470
0.136;-9.805;-0.134;0.0;-0.001;0.0;12379;2021-01-16 16:15:35:478
0.127;-9.8;-0.151;0.0;-0.001;0.0;12388;2021-01-16 16:15:35:487
0.127;-9.8;-0.151;0.0;-0.001;0.0;12399;2021-01-16 16:15:35:498
0.127;-9.8;-0.151;0.0;-0.001;0.0;12409;2021-01-16 16:15:35:508
0.127;-9.8;-0.151;0.0;-0.001;0.0;12419;2021-01-16 16:15:35:518
0.127;-9.8;-0.151;0.0;-0.001;0.0;12428;2021-01-16 16:15:35:527
0.127;-9.8;-0.151;0.0;-0.001;0.0;12438;2021-01-16 16:15:35:537
0.134;-9.788;-0.139;0.0;0.0;0.0;12449;2021-01-16 16:15:35:548
0.134;-9.788;-0.139;0.0;0.0;0.0;12458;2021-01-16 16:15:35:557
0.134;-9.788;-0.139;0.0;0.0;0.0;12468;2021-01-16 16:15:35:567
0.134;-9.788;-0.139;0.0;0.0;0.0;12478;2021-01-16 16:15:35:577
0.134;-9.788;-0.139;0.0;0.0;0.0;12488;2021-01-16 16:15:35:587
0.134;-9.788;-0.139;0.0;0.0;0.0;12498;2021-01-16 16:15:35:597
0.134;-9.788;-0.139;0.0;0.0;0.0;12509;2021-01-16 16:15:35:608
0.11;-9.788;-0.141;0.0;0.0;0.0;12518;2021-01-16 16:15:35:617
0.11;-9.788;-0.141;0.0;0.0;0.0;12528;2021-01-16 16:15:35:627
0.11;-9.788;-0.141;0.0;0.0;0.0;12539;2021-01-16 16:15:35:638
0.11;-9.788;-0.141;0.0;0.0;0.0;12548;2021-01-16 16:15:35:647
0.11;-9.788;-0.141;0.0;0.0;0.0;12560;2021-01-16 16:15:35:659
0.11;-9.788;-0.141;0.0;0.0;0.0;12568;2021-01-16 16:15:35:667
0.11;-9.788;-0.141;0.0;0.0;0.0;12578;2021-01-16 16:15:35:677
0.11;-9.788;-0.141;0.0;0.0;0.0;12592;2021-01-16 16:15:35:691
0.11;-9.788;-0.141;0.0;0.0;0.0;12599;2021-01-16 16:15:35:698
0.11;-9.788;-0.141;0.0;0.0;0.0;12609;2021-01-16 16:15:35:708
0.11;-9.788;-0.141;0.0;0.0;0.0;12619;2021-01-16 16:15:35:718
0.108;-9.8;-0.144;0.0;0.0;0.0;12628;2021-01-16 16:15:35:727
0.108;-9.8;-0.144;0.0;0.0;0.0;12638;2021-01-16 16:15:35:737
0.108;-9.8;-0.144;0.0;0.0;0.0;12648;2021-01-16 16:15:35:747
0.108;-9.8;-0.144;0.0;0.0;0.0;12658;2021-01-16 16:15:35:757
0.108;-9.8;-0.144;0.0;0.0;0.0;12668;2021-01-16 16:15:35:767
0.108;-9.8;-0.144;0.0;0.0;0.0;12678;2021-01-16 16:15:35:777
0.139;-9.8;-0.136;0.0;0.0;0.0;12688;2021-01-16 16:15:35:787
0.139;-9.8;-0.136;0.0;0.0;0.0;12698;2021-01-16 16:15:35:797
0.139;-9.8;-0.136;0.0;0.0;0.0;12709;2021-01-16 16:15:35:808
0.139;-9.8;-0.136;0.0;0.0;0.0;12719;2021-01-16 16:15:35:818
0.139;-9.8;-0.136;0.0;0.0;0.0;12728;2021-01-16 16:15:35:827
0.139;-9.8;-0.136;0.0;0.0;0.0;12738;2021-01-16 16:15:35:837
0.113;-9.802;-0.129;0.0;0.0;0.0;12748;2021-01-16 16:15:35:847
0.113;-9.802;-0.129;0.0;0.0;0.0;12758;2021-01-16 16:15:35:857
0.113;-9.802;-0.129;0.0;0.0;0.0;12768;2021-01-16 16:15:35:867
0.113;-9.802;-0.129;0.0;0.0;0.0;12778;2021-01-16 16:15:35:877
0.113;-9.802;-0.129;0.0;0.0;0.0;12789;2021-01-16 16:15:35:888
0.113;-9.802;-0.129;0.0;0.0;0.0;12799;2021-01-16 16:15:35:898
0.12;-9.802;-0.132;0.0;0.001;0.0;12810;2021-01-16 16:15:35:909
0.12;-9.802;-0.132;0.0;0.001;0.0;12818;2021-01-16 16:15:35:917
0.12;-9.802;-0.132;0.0;0.001;0.0;12828;2021-01-16 16:15:35:927
0.12;-9.802;-0.132;0.0;0.001;0.0;12838;2021-01-16 16:15:35:937
0.12;-9.802;-0.132;0.0;0.001;0.0;12849;2021-01-16 16:15:35:948
0.12;-9.802;-0.132;0.0;0.001;0.0;12859;2021-01-16 16:15:35:958
0.125;-9.783;-0.127;0.0;0.001;0.0;12868;2021-01-16 16:15:35:967
0.125;-9.783;-0.127;0.0;0.001;0.0;12878;2021-01-16 16:15:35:977
0.125;-9.783;-0.127;0.0;0.001;0.0;12889;2021-01-16 16:15:35:988
0.125;-9.783;-0.127;0.0;0.001;0.0;12898;2021-01-16 16:15:35:997
0.125;-9.783;-0.127;0.0;0.001;0.0;12909;2021-01-16 16:15:36:008
0.125;-9.783;-0.127;0.0;0.001;0.0;12918;2021-01-16 16:15:36:017
0.132;-9.793;-0.141;0.0;0.0;0.0;12928;2021-01-16 16:15:36:027
0.132;-9.793;-0.141;0.0;0.0;0.0;12938;2021-01-16 16:15:36:037
0.132;-9.793;-0.141;0.0;0.0;0.0;12948;2021-01-16 16:15:36:047
0.132;-9.793;-0.141;0.0;0.0;0.0;12960;2021-01-16 16:15:36:059
0.132;-9.793;-0.141;0.0;0.0;0.0;12970;2021-01-16 16:15:36:069
0.132;-9.793;-0.141;0.0;0.0;0.0;12978;2021-01-16 16:15:36:077
0.134;-9.788;-0.141;0.0;0.0;0.0;12988;2021-01-16 16:15:36:087
0.134;-9.788;-0.141;0.0;0.0;0.0;12998;2021-01-16 16:15:36:097
0.134;-9.788;-0.141;0.0;0.0;0.0;13009;2021-01-16 16:15:36:108
0.134;-9.788;-0.141;0.0;0.0;0.0;13018;2021-01-16 16:15:36:117
0.134;-9.788;-0.141;0.0;0.0;0.0;13028;2021-01-16 16:15:36:127
0.134;-9.788;-0.141;0.0;0.0;0.0;13038;2021-01-16 16:15:36:137
0.134;-9.788;-0.141;0.0;0.0;0.0;13048;2021-01-16 16:15:36:147
0.134;-9.788;-0.141;0.0;0.0;0.0;13062;2021-01-16 16:15:36:161
0.134;-9.788;-0.141;0.0;0.0;0.0;13069;2021-01-16 16:15:36:168
0.134;-9.788;-0.141;0.0;0.0;0.0;13079;2021-01-16 16:15:36:178
0.134;-9.788;-0.141;0.0;0.0;0.0;13088;2021-01-16 16:15:36:187
0.134;-9.788;-0.141;0.0;0.0;0.0;13099;2021-01-16 16:15:36:198
0.12;-9.776;-0.156;0.0;0.0;0.0;13108;2021-01-16 16:15:36:207
0.12;-9.776;-0.156;0.0;0.0;0.0;13118;2021-01-16 16:15:36:217
0.12;-9.776;-0.156;0.0;0.0;0.0;13128;2021-01-16 16:15:36:227
0.12;-9.776;-0.156;0.0;0.0;0.0;13138;2021-01-16 16:15:36:237
0.12;-9.776;-0.156;0.0;0.0;0.0;13151;2021-01-16 16:15:36:250
0.12;-9.776;-0.156;0.0;0.0;0.0;13158;2021-01-16 16:15:36:257
0.096;-9.795;-0.146;0.0;0.0;0.0;13168;2021-01-16 16:15:36:267
0.096;-9.795;-0.146;0.0;0.0;0.0;13178;2021-01-16 16:15:36:277
0.096;-9.795;-0.146;0.0;0.0;0.0;13188;2021-01-16 16:15:36:287
0.096;-9.795;-0.146;0.0;0.0;0.0;13209;2021-01-16 16:15:36:308
0.096;-9.795;-0.146;0.0;0.0;0.0;13209;2021-01-16 16:15:36:308
0.096;-9.795;-0.146;0.0;0.0;0.0;13218;2021-01-16 16:15:36:317
0.136;-9.778;-0.136;0.0;0.0;0.0;13229;2021-01-16 16:15:36:328
0.136;-9.778;-0.136;0.0;0.0;0.0;13238;2021-01-16 16:15:36:337
0.136;-9.778;-0.136;0.0;0.0;0.0;13248;2021-01-16 16:15:36:347
0.136;-9.778;-0.136;0.0;0.0;0.0;13259;2021-01-16 16:15:36:358
0.136;-9.778;-0.136;0.0;0.0;0.0;13270;2021-01-16 16:15:36:369
0.136;-9.778;-0.136;0.0;0.0;0.0;13278;2021-01-16 16:15:36:377
0.122;-9.807;-0.146;0.0;0.0;0.0;13289;2021-01-16 16:15:36:388
0.122;-9.807;-0.146;0.0;0.0;0.0;13298;2021-01-16 16:15:36:397
0.122;-9.807;-0.146;0.0;0.0;0.0;13308;2021-01-16 16:15:36:407
0.122;-9.807;-0.146;0.0;0.0;0.0;13319;2021-01-16 16:15:36:418
0.122;-9.807;-0.146;0.0;0.0;0.0;13328;2021-01-16 16:15:36:427
0.122;-9.807;-0.146;0.0;0.0;0.0;13338;2021-01-16 16:15:36:437
0.122;-9.807;-0.146;0.0;0.0;0.0;13348;2021-01-16 16:15:36:447
0.141;-9.793;-0.141;0.0;0.0;0.0;13359;2021-01-16 16:15:36:458
0.141;-9.793;-0.141;0.0;0.0;0.0;13368;2021-01-16 16:15:36:467
0.141;-9.793;-0.141;0.0;0.0;0.0;13383;2021-01-16 16:15:36:482
0.141;-9.793;-0.141;0.0;0.0;0.0;13388;2021-01-16 16:15:36:487
0.141;-9.793;-0.141;0.0;0.0;0.0;13399;2021-01-16 16:15:36:498
0.132;-9.79;-0.153;0.0;-0.001;0.0;13410;2021-01-16 16:15:36:509
0.132;-9.79;-0.153;0.0;-0.001;0.0;13418;2021-01-16 16:15:36:517
0.132;-9.79;-0.153;0.0;-0.001;0.0;13428;2021-01-16 16:15:36:527
0.132;-9.79;-0.153;0.0;-0.001;0.0;13438;2021-01-16 16:15:36:537
0.132;-9.79;-0.153;0.0;-0.001;0.0;13449;2021-01-16 16:15:36:548
0.132;-9.79;-0.153;0.0;-0.001;0.0;13458;2021-01-16 16:15:36:557
0.122;-9.783;-0.136;0.0;-0.001;0.0;13468;2021-01-16 16:15:36:567
0.122;-9.783;-0.136;0.0;-0.001;0.0;13478;2021-01-16 16:15:36:577
0.122;-9.783;-0.136;0.0;-0.001;0.0;13488;2021-01-16 16:15:36:587
0.122;-9.783;-0.136;0.0;-0.001;0.0;13499;2021-01-16 16:15:36:598
0.122;-9.783;-0.136;0.0;-0.001;0.0;13508;2021-01-16 16:15:36:607
0.122;-9.783;-0.136;0.0;-0.001;0.0;13518;2021-01-16 16:15:36:617
0.129;-9.785;-0.151;0.0;0.0;0.0;13528;2021-01-16 16:15:36:627
0.129;-9.785;-0.151;0.0;0.0;0.0;13538;2021-01-16 16:15:36:637
0.129;-9.785;-0.151;0.0;0.0;0.0;13549;2021-01-16 16:15:36:648
0.129;-9.785;-0.151;0.0;0.0;0.0;13558;2021-01-16 16:15:36:657
0.129;-9.785;-0.151;0.0;0.0;0.0;13568;2021-01-16 16:15:36:667
0.129;-9.785;-0.151;0.0;0.0;0.0;13578;2021-01-16 16:15:36:677
0.148;-9.781;-0.132;0.0;0.0;0.0;13593;2021-01-16 16:15:36:692
0.148;-9.781;-0.132;0.0;0.0;0.0;13599;2021-01-16 16:15:36:698
0.148;-9.781;-0.132;0.0;0.0;0.0;13609;2021-01-16 16:15:36:708
0.148;-9.781;-0.132;0.0;0.0;0.0;13619;2021-01-16 16:15:36:718
0.148;-9.781;-0.132;0.0;0.0;0.0;13628;2021-01-16 16:15:36:727
0.148;-9.781;-0.132;0.0;0.0;0.0;13638;2021-01-16 16:15:36:737
0.127;-9.793;-0.141;0.0;0.0;0.0;13648;2021-01-16 16:15:36:747
0.127;-9.793;-0.141;0.0;0.0;0.0;13658;2021-01-16 16:15:36:757
0.127;-9.793;-0.141;0.0;0.0;0.0;13669;2021-01-16 16:15:36:768
0.127;-9.793;-0.141;0.0;0.0;0.0;13678;2021-01-16 16:15:36:777
0.127;-9.793;-0.141;0.0;0.0;0.0;13688;2021-01-16 16:15:36:787
0.127;-9.793;-0.141;0.0;0.0;0.0;13698;2021-01-16 16:15:36:797
0.127;-9.805;-0.134;0.0;0.0;0.0;13708;2021-01-16 16:15:36:807
0.127;-9.805;-0.134;0.0;0.0;0.0;13719;2021-01-16 16:15:36:818
0.127;-9.805;-0.134;0.0;0.0;0.0;13728;2021-01-16 16:15:36:827
0.127;-9.805;-0.134;0.0;0.0;0.0;13738;2021-01-16 16:15:36:837
0.127;-9.805;-0.134;0.0;0.0;0.0;13748;2021-01-16 16:15:36:847
0.127;-9.805;-0.134;0.0;0.0;0.0;13758;2021-01-16 16:15:36:857
0.127;-9.788;-0.134;0.0;0.0;0.0;13768;2021-01-16 16:15:36:867
0.127;-9.788;-0.134;0.0;0.0;0.0;13778;2021-01-16 16:15:36:877
0.127;-9.788;-0.134;0.0;0.0;0.0;13788;2021-01-16 16:15:36:887
0.127;-9.788;-0.134;0.0;0.0;0.0;13798;2021-01-16 16:15:36:897
0.127;-9.788;-0.134;0.0;0.0;0.0;13808;2021-01-16 16:15:36:907
0.127;-9.788;-0.134;0.0;0.0;0.0;13818;2021-01-16 16:15:36:917
0.122;-9.788;-0.132;0.0;0.0;0.0;13829;2021-01-16 16:15:36:928
0.122;-9.788;-0.132;0.0;0.0;0.0;13838;2021-01-16 16:15:36:937
0.122;-9.788;-0.132;0.0;0.0;0.0;13849;2021-01-16 16:15:36:948
0.122;-9.788;-0.132;0.0;0.0;0.0;13858;2021-01-16 16:15:36:957
0.122;-9.788;-0.132;0.0;0.0;0.0;13868;2021-01-16 16:15:36:967
0.122;-9.788;-0.132;0.0;0.0;0.0;13878;2021-01-16 16:15:36:977
0.134;-9.785;-0.129;0.001;0.0;0.0;13888;2021-01-16 16:15:36:987
0.134;-9.785;-0.129;0.001;0.0;0.0;13898;2021-01-16 16:15:36:997
0.134;-9.785;-0.129;0.001;0.0;0.0;13908;2021-01-16 16:15:37:007
0.134;-9.785;-0.129;0.001;0.0;0.0;13919;2021-01-16 16:15:37:018
0.134;-9.785;-0.129;0.001;0.0;0.0;13928;2021-01-16 16:15:37:027
0.134;-9.785;-0.129;0.001;0.0;0.0;13938;2021-01-16 16:15:37:037
0.146;-9.781;-0.132;0.001;0.0;0.0;13949;2021-01-16 16:15:37:048
0.146;-9.781;-0.132;0.001;0.0;0.0;13958;2021-01-16 16:15:37:057
0.146;-9.781;-0.132;0.001;0.0;0.0;13969;2021-01-16 16:15:37:068
0.146;-9.781;-0.132;0.001;0.0;0.0;13978;2021-01-16 16:15:37:077
0.146;-9.781;-0.132;0.001;0.0;0.0;13988;2021-01-16 16:15:37:087
0.146;-9.781;-0.132;0.001;0.0;0.0;13998;2021-01-16 16:15:37:097
0.105;-9.788;-0.141;0.0;0.0;0.0;14011;2021-01-16 16:15:37:110
0.105;-9.788;-0.141;0.0;0.0;0.0;14018;2021-01-16 16:15:37:117
0.105;-9.788;-0.141;0.0;0.0;0.0;14028;2021-01-16 16:15:37:127
0.105;-9.788;-0.141;0.0;0.0;0.0;14038;2021-01-16 16:15:37:137
0.105;-9.788;-0.141;0.0;0.0;0.0;14048;2021-01-16 16:15:37:147
0.105;-9.788;-0.141;0.0;0.0;0.0;14058;2021-01-16 16:15:37:157
0.146;-9.797;-0.141;0.0;0.0;0.0;14075;2021-01-16 16:15:37:174
0.146;-9.797;-0.141;0.0;0.0;0.0;14078;2021-01-16 16:15:37:177
0.146;-9.797;-0.141;0.0;0.0;0.0;14088;2021-01-16 16:15:37:187
0.146;-9.797;-0.141;0.0;0.0;0.0;14098;2021-01-16 16:15:37:197
0.146;-9.797;-0.141;0.0;0.0;0.0;14109;2021-01-16 16:15:37:208
0.146;-9.797;-0.141;0.0;0.0;0.0;14118;2021-01-16 16:15:37:217
0.134;-9.776;-0.125;0.0;0.0;0.0;14128;2021-01-16 16:15:37:227
0.134;-9.776;-0.125;0.0;0.0;0.0;14138;2021-01-16 16:15:37:237
0.134;-9.776;-0.125;0.0;0.0;0.0;14151;2021-01-16 16:15:37:250
0.134;-9.776;-0.125;0.0;0.0;0.0;14161;2021-01-16 16:15:37:260
0.134;-9.776;-0.125;0.0;0.0;0.0;14169;2021-01-16 16:15:37:268
0.134;-9.776;-0.125;0.0;0.0;0.0;14178;2021-01-16 16:15:37:277
0.129;-9.802;-0.16;0.0;0.0;0.0;14188;2021-01-16 16:15:37:287
0.129;-9.802;-0.16;0.0;0.0;0.0;14198;2021-01-16 16:15:37:297
0.129;-9.802;-0.16;0.0;0.0;0.0;14208;2021-01-16 16:15:37:307
0.129;-9.802;-0.16;0.0;0.0;0.0;14227;2021-01-16 16:15:37:326
0.129;-9.802;-0.16;0.0;0.0;0.0;14227;2021-01-16 16:15:37:326
0.129;-9.802;-0.16;0.0;0.0;0.0;14238;2021-01-16 16:15:37:337
0.127;-9.778;-0.129;0.0;0.001;0.0;14248;2021-01-16 16:15:37:347
0.127;-9.778;-0.129;0.0;0.001;0.0;14262;2021-01-16 16:15:37:361
0.127;-9.778;-0.129;0.0;0.001;0.0;14268;2021-01-16 16:15:37:367
0.127;-9.778;-0.129;0.0;0.001;0.0;14278;2021-01-16 16:15:37:377
0.127;-9.778;-0.129;0.0;0.001;0.0;14288;2021-01-16 16:15:37:387
0.127;-9.778;-0.129;0.0;0.001;0.0;14298;2021-01-16 16:15:37:397
0.127;-9.802;-0.148;0.0;0.001;0.0;14308;2021-01-16 16:15:37:407
0.127;-9.802;-0.148;0.0;0.001;0.0;14318;2021-01-16 16:15:37:417
0.127;-9.802;-0.148;0.0;0.001;0.0;14328;2021-01-16 16:15:37:427
0.127;-9.802;-0.148;0.0;0.001;0.0;14338;2021-01-16 16:15:37:437
0.127;-9.802;-0.148;0.0;0.001;0.0;14348;2021-01-16 16:15:37:447
0.127;-9.802;-0.148;0.0;0.001;0.0;14358;2021-01-16 16:15:37:457
0.144;-9.79;-0.148;0.0;0.001;0.0;14369;2021-01-16 16:15:37:468
0.144;-9.79;-0.148;0.0;0.001;0.0;14378;2021-01-16 16:15:37:477
0.144;-9.79;-0.148;0.0;0.001;0.0;14388;2021-01-16 16:15:37:487
0.144;-9.79;-0.148;0.0;0.001;0.0;14398;2021-01-16 16:15:37:497
0.144;-9.79;-0.148;0.0;0.001;0.0;14408;2021-01-16 16:15:37:507
0.144;-9.79;-0.148;0.0;0.001;0.0;14419;2021-01-16 16:15:37:518
0.144;-9.79;-0.148;0.0;0.001;0.0;14428;2021-01-16 16:15:37:527
0.117;-9.793;-0.139;0.0;0.001;0.0;14438;2021-01-16 16:15:37:537
0.117;-9.793;-0.139;0.0;0.001;0.0;14448;2021-01-16 16:15:37:547
0.117;-9.793;-0.139;0.0;0.001;0.0;14458;2021-01-16 16:15:37:557
0.117;-9.793;-0.139;0.0;0.001;0.0;14469;2021-01-16 16:15:37:568
0.117;-9.793;-0.139;0.0;0.001;0.0;14479;2021-01-16 16:15:37:578
0.117;-9.793;-0.139;0.0;0.001;0.0;14488;2021-01-16 16:15:37:587
0.117;-9.793;-0.139;0.0;0.001;0.0;14498;2021-01-16 16:15:37:597
0.117;-9.793;-0.139;0.0;0.001;0.0;14509;2021-01-16 16:15:37:608
0.117;-9.793;-0.139;0.0;0.001;0.0;14518;2021-01-16 16:15:37:617
0.117;-9.793;-0.139;0.0;0.001;0.0;14529;2021-01-16 16:15:37:628
0.117;-9.793;-0.139;0.0;0.001;0.0;14538;2021-01-16 16:15:37:637
0.132;-9.795;-0.134;0.0;0.001;0.0;14548;2021-01-16 16:15:37:647
0.132;-9.795;-0.134;0.0;0.001;0.0;14558;2021-01-16 16:15:37:657
0.132;-9.795;-0.134;0.0;0.001;0.0;14568;2021-01-16 16:15:37:667
0.132;-9.795;-0.134;0.0;0.001;0.0;14578;2021-01-16 16:15:37:677
0.132;-9.795;-0.134;0.0;0.001;0.0;14588;2021-01-16 16:15:37:687
0.132;-9.795;-0.134;0.0;0.001;0.0;14598;2021-01-16 16:15:37:697
0.134;-9.788;-0.141;0.0;0.0;0.0;14612;2021-01-16 16:15:37:711
0.134;-9.788;-0.141;0.0;0.0;0.0;14618;2021-01-16 16:15:37:717
0.134;-9.788;-0.141;0.0;0.0;0.0;14628;2021-01-16 16:15:37:727
0.134;-9.788;-0.141;0.0;0.0;0.0;14638;2021-01-16 16:15:37:737
0.134;-9.788;-0.141;0.0;0.0;0.0;14648;2021-01-16 16:15:37:747
0.134;-9.788;-0.141;0.0;0.0;0.0;14658;2021-01-16 16:15:37:757
0.134;-9.781;-0.132;0.0;0.0;0.0;14668;2021-01-16 16:15:37:767
0.134;-9.781;-0.132;0.0;0.0;0.0;14679;2021-01-16 16:15:37:778
0.134;-9.781;-0.132;0.0;0.0;0.0;14689;2021-01-16 16:15:37:788
0.134;-9.781;-0.132;0.0;0.0;0.0;14698;2021-01-16 16:15:37:797
0.134;-9.781;-0.132;0.0;0.0;0.0;14708;2021-01-16 16:15:37:807
0.134;-9.781;-0.132;0.0;0.0;0.0;14718;2021-01-16 16:15:37:817
0.134;-9.79;-0.136;0.0;0.001;0.0;14732;2021-01-16 16:15:37:831
0.134;-9.79;-0.136;0.0;0.001;0.0;14740;2021-01-16 16:15:37:839
0.134;-9.79;-0.136;0.0;0.001;0.0;14749;2021-01-16 16:15:37:848
0.134;-9.79;-0.136;0.0;0.001;0.0;14758;2021-01-16 16:15:37:857
0.134;-9.79;-0.136;0.0;0.001;0.0;14768;2021-01-16 16:15:37:867
0.134;-9.79;-0.136;0.0;0.001;0.0;14778;2021-01-16 16:15:37:877
0.129;-9.793;-0.146;0.0;0.001;0.0;14790;2021-01-16 16:15:37:889
0.129;-9.793;-0.146;0.0;0.001;0.0;14798;2021-01-16 16:15:37:897
0.129;-9.793;-0.146;0.0;0.001;0.0;14808;2021-01-16 16:15:37:907
0.129;-9.793;-0.146;0.0;0.001;0.0;14818;2021-01-16 16:15:37:917
0.129;-9.793;-0.146;0.0;0.001;0.0;14828;2021-01-16 16:15:37:927
0.129;-9.793;-0.146;0.0;0.001;0.0;14838;2021-01-16 16:15:37:937
0.139;-9.785;-0.136;0.0;0.0;0.0;14850;2021-01-16 16:15:37:949
0.139;-9.785;-0.136;0.0;0.0;0.0;14858;2021-01-16 16:15:37:957
0.139;-9.785;-0.136;0.0;0.0;0.0;14869;2021-01-16 16:15:37:968
0.139;-9.785;-0.136;0.0;0.0;0.0;14878;2021-01-16 16:15:37:977
0.139;-9.785;-0.136;0.0;0.0;0.0;14888;2021-01-16 16:15:37:987
0.139;-9.785;-0.136;0.0;0.0;0.0;14898;2021-01-16 16:15:37:997
0.117;-9.778;-0.144;0.0;0.0;0.0;14908;2021-01-16 16:15:38:007
0.117;-9.778;-0.144;0.0;0.0;0.0;14918;2021-01-16 16:15:38:017
0.117;-9.778;-0.144;0.0;0.0;0.0;14928;2021-01-16 16:15:38:027
0.117;-9.778;-0.144;0.0;0.0;0.0;14938;2021-01-16 16:15:38:037
0.117;-9.778;-0.144;0.0;0.0;0.0;14948;2021-01-16 16:15:38:047
0.117;-9.778;-0.144;0.0;0.0;0.0;14958;2021-01-16 16:15:38:057
0.125;-9.785;-0.136;0.0;0.0;0.0;14968;2021-01-16 16:15:38:067
0.125;-9.785;-0.136;0.0;0.0;0.0;14979;2021-01-16 16:15:38:078
0.125;-9.785;-0.136;0.0;0.0;0.0;14988;2021-01-16 16:15:38:087
0.125;-9.785;-0.136;0.0;0.0;0.0;14998;2021-01-16 16:15:38:097
0.125;-9.785;-0.136;0.0;0.0;0.0;15011;2021-01-16 16:15:38:110
0.125;-9.785;-0.136;0.0;0.0;0.0;15018;2021-01-16 16:15:38:117
0.139;-9.795;-0.144;0.0;0.0;0.0;15028;2021-01-16 16:15:38:127
0.139;-9.795;-0.144;0.0;0.0;0.0;15039;2021-01-16 16:15:38:138
0.139;-9.795;-0.144;0.0;0.0;0.0;15049;2021-01-16 16:15:38:148
0.139;-9.795;-0.144;0.0;0.0;0.0;15058;2021-01-16 16:15:38:157
0.139;-9.795;-0.144;0.0;0.0;0.0;15068;2021-01-16 16:15:38:167
0.139;-9.795;-0.144;0.0;0.0;0.0;15078;2021-01-16 16:15:38:177
0.129;-9.793;-0.132;0.0;-0.001;0.0;15088;2021-01-16 16:15:38:187
0.129;-9.793;-0.132;0.0;-0.001;0.0;15098;2021-01-16 16:15:38:197
0.129;-9.793;-0.132;0.0;-0.001;0.0;15108;2021-01-16 16:15:38:207
0.129;-9.793;-0.132;0.0;-0.001;0.0;15118;2021-01-16 16:15:38:217
0.129;-9.793;-0.132;0.0;-0.001;0.0;15128;2021-01-16 16:15:38:227
0.129;-9.793;-0.132;0.0;-0.001;0.0;15139;2021-01-16 16:15:38:238
0.12;-9.809;-0.134;0.0;-0.001;0.0;15148;2021-01-16 16:15:38:247
0.12;-9.809;-0.134;0.0;-0.001;0.0;15158;2021-01-16 16:15:38:257
0.12;-9.809;-0.134;0.0;-0.001;0.0;15168;2021-01-16 16:15:38:267
0.12;-9.809;-0.134;0.0;-0.001;0.0;15179;2021-01-16 16:15:38:278
0.12;-9.809;-0.134;0.0;-0.001;0.0;15188;2021-01-16 16:15:38:287
0.12;-9.809;-0.134;0.0;-0.001;0.0;15198;2021-01-16 16:15:38:297
0.101;-9.807;-0.136;0.0;0.0;0.0;15208;2021-01-16 16:15:38:307
0.101;-9.807;-0.136;0.0;0.0;0.0;15219;2021-01-16 16:15:38:318
0.101;-9.807;-0.136;0.0;0.0;0.0;15243;2021-01-16 16:15:38:342
0.101;-9.807;-0.136;0.0;0.0;0.0;15244;2021-01-16 16:15:38:343
0.101;-9.807;-0.136;0.0;0.0;0.0;15248;2021-01-16 16:15:38:347
0.101;-9.807;-0.136;0.0;0.0;0.0;15258;2021-01-16 16:15:38:357
0.12;-9.795;-0.146;0.0;0.0;0.0;15268;2021-01-16 16:15:38:367
0.12;-9.795;-0.146;0.0;0.0;0.0;15278;2021-01-16 16:15:38:377
0.12;-9.795;-0.146;0.0;0.0;0.0;15288;2021-01-16 16:15:38:387
0.12;-9.795;-0.146;0.0;0.0;0.0;15298;2021-01-16 16:15:38:397
0.12;-9.795;-0.146;0.0;0.0;0.0;15309;2021-01-16 16:15:38:408
0.12;-9.795;-0.146;0.0;0.0;0.0;15318;2021-01-16 16:15:38:417
0.134;-9.79;-0.139;0.0;0.001;0.0;15329;2021-01-16 16:15:38:428
0.134;-9.79;-0.139;0.0;0.001;0.0;15338;2021-01-16 16:15:38:437
0.134;-9.79;-0.139;0.0;0.001;0.0;15348;2021-01-16 16:15:38:447
0.134;-9.79;-0.139;0.0;0.001;0.0;15358;2021-01-16 16:15:38:457
0.134;-9.79;-0.139;0.0;0.001;0.0;15368;2021-01-16 16:15:38:467
0.134;-9.79;-0.139;0.0;0.001;0.0;15378;2021-01-16 16:15:38:477
0.134;-9.788;-0.141;0.0;0.001;0.0;15388;2021-01-16 16:15:38:487
0.134;-9.788;-0.141;0.0;0.001;0.0;15398;2021-01-16 16:15:38:497
0.134;-9.788;-0.141;0.0;0.001;0.0;15408;2021-01-16 16:15:38:507
0.134;-9.788;-0.141;0.0;0.001;0.0;15419;2021-01-16 16:15:38:518
0.134;-9.788;-0.141;0.0;0.001;0.0;15428;2021-01-16 16:15:38:527
0.134;-9.788;-0.141;0.0;0.001;0.0;15439;2021-01-16 16:15:38:538
0.122;-9.785;-0.148;0.0;0.001;0.0;15448;2021-01-16 16:15:38:547
0.122;-9.785;-0.148;0.0;0.001;0.0;15458;2021-01-16 16:15:38:557
0.122;-9.785;-0.148;0.0;0.001;0.0;15468;2021-01-16 16:15:38:567
0.122;-9.785;-0.148;0.0;0.001;0.0;15478;2021-01-16 16:15:38:577
0.122;-9.785;-0.148;0.0;0.001;0.0;15488;2021-01-16 16:15:38:587
0.122;-9.785;-0.148;0.0;0.001;0.0;15498;2021-01-16 16:15:38:597
0.115;-9.805;-0.134;0.0;0.001;0.0;15508;2021-01-16 16:15:38:607
0.115;-9.805;-0.134;0.0;0.001;0.0;15518;2021-01-16 16:15:38:617
0.115;-9.805;-0.134;0.0;0.001;0.0;15528;2021-01-16 16:15:38:627
0.115;-9.805;-0.134;0.0;0.001;0.0;15539;2021-01-16 16:15:38:638
0.115;-9.805;-0.134;0.0;0.001;0.0;15548;2021-01-16 16:15:38:647
0.115;-9.805;-0.134;0.0;0.001;0.0;15558;2021-01-16 16:15:38:657
0.134;-9.781;-0.141;0.0;0.0;0.0;15569;2021-01-16 16:15:38:668
0.134;-9.781;-0.141;0.0;0.0;0.0;15578;2021-01-16 16:15:38:677
0.134;-9.781;-0.141;0.0;0.0;0.0;15589;2021-01-16 16:15:38:688
0.134;-9.781;-0.141;0.0;0.0;0.0;15598;2021-01-16 16:15:38:697
0.134;-9.781;-0.141;0.0;0.0;0.0;15610;2021-01-16 16:15:38:709
0.134;-9.781;-0.141;0.0;0.0;0.0;15619;2021-01-16 16:15:38:718
0.103;-9.79;-0.129;0.0;0.0;0.0;15628;2021-01-16 16:15:38:727
0.103;-9.79;-0.129;0.0;0.0;0.0;15638;2021-01-16 16:15:38:737
0.103;-9.79;-0.129;0.0;0.0;0.0;15648;2021-01-16 16:15:38:747
0.103;-9.79;-0.129;0.0;0.0;0.0;15658;2021-01-16 16:15:38:757
0.103;-9.79;-0.129;0.0;0.0;0.0;15670;2021-01-16 16:15:38:769
0.103;-9.79;-0.129;0.0;0.0;0.0;15678;2021-01-16 16:15:38:777
0.113;-9.795;-0.144;0.0;0.0;0.0;15691;2021-01-16 16:15:38:790
0.113;-9.795;-0.144;0.0;0.0;0.0;15700;2021-01-16 16:15:38:799
0.113;-9.795;-0.144;0.0;0.0;0.0;15714;2021-01-16 16:15:38:813
0.113;-9.795;-0.144;0.0;0.0;0.0;15718;2021-01-16 16:15:38:817
0.113;-9.795;-0.144;0.0;0.0;0.0;15728;2021-01-16 16:15:38:827
0.113;-9.795;-0.144;0.0;0.0;0.0;15738;2021-01-16 16:15:38:837
0.136;-9.79;-0.136;0.0;0.0;0.0;15748;2021-01-16 16:15:38:847
0.136;-9.79;-0.136;0.0;0.0;0.0;15758;2021-01-16 16:15:38:857
0.136;-9.79;-0.136;0.0;0.0;0.0;15769;2021-01-16 16:15:38:868
0.136;-9.79;-0.136;0.0;0.0;0.0;15779;2021-01-16 16:15:38:878
0.136;-9.79;-0.136;0.0;0.0;0.0;15788;2021-01-16 16:15:38:887
0.136;-9.79;-0.136;0.0;0.0;0.0;15798;2021-01-16 16:15:38:897
0.125;-9.8;-0.144;0.0;0.0;0.0;15809;2021-01-16 16:15:38:908
0.125;-9.8;-0.144;0.0;0.0;0.0;15819;2021-01-16 16:15:38:918
0.125;-9.8;-0.144;0.0;0.0;0.0;15829;2021-01-16 16:15:38:928
0.125;-9.8;-0.144;0.0;0.0;0.0;15838;2021-01-16 16:15:38:937
0.125;-9.8;-0.144;0.0;0.0;0.0;15848;2021-01-16 16:15:38:947
0.125;-9.8;-0.144;0.0;0.0;0.0;15858;2021-01-16 16:15:38:957
0.117;-9.781;-0.146;0.0;0.0;0.0;15868;2021-01-16 16:15:38:967
0.117;-9.781;-0.146;0.0;0.0;0.0;15878;2021-01-16 16:15:38:977
0.117;-9.781;-0.146;0.0;0.0;0.0;15888;2021-01-16 16:15:38:987
0.117;-9.781;-0.146;0.0;0.0;0.0;15898;2021-01-16 16:15:38:997
0.117;-9.781;-0.146;0.0;0.0;0.0;15908;2021-01-16 16:15:39:007
0.117;-9.781;-0.146;0.0;0.0;0.0;15918;2021-01-16 16:15:39:017
0.103;-9.785;-0.146;0.0;0.0;0.0;15928;2021-01-16 16:15:39:027
0.103;-9.785;-0.146;0.0;0.0;0.0;15938;2021-01-16 16:15:39:037
0.103;-9.785;-0.146;0.0;0.0;0.0;15949;2021-01-16 16:15:39:048
0.103;-9.785;-0.146;0.0;0.0;0.0;15958;2021-01-16 16:15:39:057
0.103;-9.785;-0.146;0.0;0.0;0.0;15968;2021-01-16 16:15:39:067
0.103;-9.785;-0.146;0.0;0.0;0.0;15978;2021-01-16 16:15:39:077
0.132;-9.788;-0.132;0.0;0.0;0.0;15988;2021-01-16 16:15:39:087
0.132;-9.788;-0.132;0.0;0.0;0.0;15998;2021-01-16 16:15:39:097
0.132;-9.788;-0.132;0.0;0.0;0.0;16008;2021-01-16 16:15:39:107
0.132;-9.788;-0.132;0.0;0.0;0.0;16018;2021-01-16 16:15:39:117
0.132;-9.788;-0.132;0.0;0.0;0.0;16028;2021-01-16 16:15:39:127
0.132;-9.788;-0.132;0.0;0.0;0.0;16038;2021-01-16 16:15:39:137
0.132;-9.788;-0.136;0.0;0.0;0.0;16048;2021-01-16 16:15:39:147
0.132;-9.788;-0.136;0.0;0.0;0.0;16059;2021-01-16 16:15:39:158
0.132;-9.788;-0.136;0.0;0.0;0.0;16069;2021-01-16 16:15:39:168
0.132;-9.788;-0.136;0.0;0.0;0.0;16078;2021-01-16 16:15:39:177
0.132;-9.788;-0.136;0.0;0.0;0.0;16088;2021-01-16 16:15:39:187
0.132;-9.788;-0.136;0.0;0.0;0.0;16099;2021-01-16 16:15:39:198
0.141;-9.802;-0.141;0.0;0.0;0.0;16108;2021-01-16 16:15:39:207
0.141;-9.802;-0.141;0.0;0.0;0.0;16118;2021-01-16 16:15:39:217
0.141;-9.802;-0.141;0.0;0.0;0.0;16128;2021-01-16 16:15:39:227
0.141;-9.802;-0.141;0.0;0.0;0.0;16138;2021-01-16 16:15:39:237
0.141;-9.802;-0.141;0.0;0.0;0.0;16148;2021-01-16 16:15:39:247
0.141;-9.802;-0.141;0.0;0.0;0.0;16159;2021-01-16 16:15:39:258
0.12;-9.771;-0.134;0.0;0.0;0.0;16170;2021-01-16 16:15:39:269
0.12;-9.771;-0.134;0.0;0.0;0.0;16178;2021-01-16 16:15:39:277
0.12;-9.771;-0.134;0.0;0.0;0.0;16189;2021-01-16 16:15:39:288
0.12;-9.771;-0.134;0.0;0.0;0.0;16198;2021-01-16 16:15:39:297
0.12;-9.771;-0.134;0.0;0.0;0.0;16208;2021-01-16 16:15:39:307
0.12;-9.771;-0.134;0.0;0.0;0.0;16218;2021-01-16 16:15:39:317
0.122;-9.781;-0.139;0.0;0.0;0.0;16228;2021-01-16 16:15:39:327
0.122;-9.781;-0.139;0.0;0.0;0.0;16238;2021-01-16 16:15:39:337
0.122;-9.781;-0.139;0.0;0.0;0.0;16265;2021-01-16 16:15:39:364
0.122;-9.781;-0.139;0.0;0.0;0.0;16266;2021-01-16 16:15:39:365
0.122;-9.781;-0.139;0.0;0.0;0.0;16269;2021-01-16 16:15:39:368
0.122;-9.781;-0.139;0.0;0.0;0.0;16279;2021-01-16 16:15:39:378
0.115;-9.793;-0.132;0.0;0.0;0.0;16294;2021-01-16 16:15:39:393
0.115;-9.793;-0.132;0.0;0.0;0.0;16299;2021-01-16 16:15:39:398
0.115;-9.793;-0.132;0.0;0.0;0.0;16309;2021-01-16 16:15:39:408
0.115;-9.793;-0.132;0.0;0.0;0.0;16318;2021-01-16 16:15:39:417
0.115;-9.793;-0.132;0.0;0.0;0.0;16328;2021-01-16 16:15:39:427
0.115;-9.793;-0.132;0.0;0.0;0.0;16338;2021-01-16 16:15:39:437
0.132;-9.785;-0.139;0.0;0.0;0.0;16349;2021-01-16 16:15:39:448
0.132;-9.785;-0.139;0.0;0.0;0.0;16358;2021-01-16 16:15:39:457
0.132;-9.785;-0.139;0.0;0.0;0.0;16369;2021-01-16 16:15:39:468
0.132;-9.785;-0.139;0.0;0.0;0.0;16378;2021-01-16 16:15:39:477
0.132;-9.785;-0.139;0.0;0.0;0.0;16389;2021-01-16 16:15:39:488
0.132;-9.785;-0.139;0.0;0.0;0.0;16398;2021-01-16 16:15:39:497
0.151;-9.795;-0.148;0.0;0.0;0.0;16409;2021-01-16 16:15:39:508
0.151;-9.795;-0.148;0.0;0.0;0.0;16418;2021-01-16 16:15:39:517
0.151;-9.795;-0.148;0.0;0.0;0.0;16428;2021-01-16 16:15:39:527
0.151;-9.795;-0.148;0.0;0.0;0.0;16438;2021-01-16 16:15:39:537
0.151;-9.795;-0.148;0.0;0.0;0.0;16448;2021-01-16 16:15:39:547
0.151;-9.795;-0.148;0.0;0.0;0.0;16458;2021-01-16 16:15:39:557
0.117;-9.8;-0.153;0.0;0.0;0.0;16469;2021-01-16 16:15:39:568
0.117;-9.8;-0.153;0.0;0.0;0.0;16478;2021-01-16 16:15:39:577
0.117;-9.8;-0.153;0.0;0.0;0.0;16488;2021-01-16 16:15:39:587
0.117;-9.8;-0.153;0.0;0.0;0.0;16498;2021-01-16 16:15:39:597
0.117;-9.8;-0.153;0.0;0.0;0.0;16508;2021-01-16 16:15:39:607
0.117;-9.8;-0.153;0.0;0.0;0.0;16520;2021-01-16 16:15:39:619
0.129;-9.785;-0.141;0.0;0.0;0.0;16528;2021-01-16 16:15:39:627
0.129;-9.785;-0.141;0.0;0.0;0.0;16539;2021-01-16 16:15:39:638
0.129;-9.785;-0.141;0.0;0.0;0.0;16548;2021-01-16 16:15:39:647
0.129;-9.785;-0.141;0.0;0.0;0.0;16558;2021-01-16 16:15:39:657
0.129;-9.785;-0.141;0.0;0.0;0.0;16571;2021-01-16 16:15:39:670
0.129;-9.785;-0.141;0.0;0.0;0.0;16578;2021-01-16 16:15:39:677
0.141;-9.79;-0.144;0.0;0.0;0.0;16588;2021-01-16 16:15:39:687
0.141;-9.79;-0.144;0.0;0.0;0.0;16598;2021-01-16 16:15:39:697
0.141;-9.79;-0.144;0.0;0.0;0.0;16608;2021-01-16 16:15:39:707
0.141;-9.79;-0.144;0.0;0.0;0.0;16626;2021-01-16 16:15:39:725
0.141;-9.79;-0.144;0.0;0.0;0.0;16628;2021-01-16 16:15:39:727
0.141;-9.79;-0.144;0.0;0.0;0.0;16639;2021-01-16 16:15:39:738
0.127;-9.8;-0.129;-0.001;0.0;0.0;16648;2021-01-16 16:15:39:747
0.127;-9.8;-0.129;-0.001;0.0;0.0;16658;2021-01-16 16:15:39:757
0.127;-9.8;-0.129;-0.001;0.0;0.0;16669;2021-01-16 16:15:39:768
0.127;-9.8;-0.129;-0.001;0.0;0.0;16678;2021-01-16 16:15:39:777
0.127;-9.8;-0.129;-0.001;0.0;0.0;16688;2021-01-16 16:15:39:787
0.127;-9.8;-0.129;-0.001;0.0;0.0;16698;2021-01-16 16:15:39:797
0.12;-9.783;-0.146;-0.001;0.0;0.0;16708;2021-01-16 16:15:39:807
0.12;-9.783;-0.146;-0.001;0.0;0.0;16719;2021-01-16 16:15:39:818
0.12;-9.783;-0.146;-0.001;0.0;0.0;16732;2021-01-16 16:15:39:831
0.12;-9.783;-0.146;-0.001;0.0;0.0;16739;2021-01-16 16:15:39:838
0.12;-9.783;-0.146;-0.001;0.0;0.0;16749;2021-01-16 16:15:39:848
0.12;-9.783;-0.146;-0.001;0.0;0.0;16758;2021-01-16 16:15:39:857
0.132;-9.793;-0.132;0.0;0.0;0.0;16768;2021-01-16 16:15:39:867
0.132;-9.793;-0.132;0.0;0.0;0.0;16779;2021-01-16 16:15:39:878
0.132;-9.793;-0.132;0.0;0.0;0.0;16789;2021-01-16 16:15:39:888
0.132;-9.793;-0.132;0.0;0.0;0.0;16798;2021-01-16 16:15:39:897
0.132;-9.793;-0.132;0.0;0.0;0.0;16809;2021-01-16 16:15:39:908
0.132;-9.793;-0.132;0.0;0.0;0.0;16820;2021-01-16 16:15:39:919
0.139;-9.79;-0.148;0.0;0.0;0.0;16828;2021-01-16 16:15:39:927
0.139;-9.79;-0.148;0.0;0.0;0.0;16838;2021-01-16 16:15:39:937
0.139;-9.79;-0.148;0.0;0.0;0.0;16849;2021-01-16 16:15:39:948
0.139;-9.79;-0.148;0.0;0.0;0.0;16858;2021-01-16 16:15:39:957
0.139;-9.79;-0.148;0.0;0.0;0.0;16868;2021-01-16 16:15:39:967
0.139;-9.79;-0.148;0.0;0.0;0.0;16878;2021-01-16 16:15:39:977
0.12;-9.79;-0.144;0.0;0.0;0.0;16888;2021-01-16 16:15:39:987
0.12;-9.79;-0.144;0.0;0.0;0.0;16905;2021-01-16 16:15:40:004
0.12;-9.79;-0.144;0.0;0.0;0.0;16908;2021-01-16 16:15:40:007
0.12;-9.79;-0.144;0.0;0.0;0.0;16918;2021-01-16 16:15:40:017
0.12;-9.79;-0.144;0.0;0.0;0.0;16931;2021-01-16 16:15:40:030
0.12;-9.79;-0.144;0.0;0.0;0.0;16938;2021-01-16 16:15:40:037
0.151;-9.781;-0.151;0.0;0.0;0.0;16949;2021-01-16 16:15:40:048
0.151;-9.781;-0.151;0.0;0.0;0.0;16958;2021-01-16 16:15:40:057
0.151;-9.781;-0.151;0.0;0.0;0.0;16968;2021-01-16 16:15:40:067
0.151;-9.781;-0.151;0.0;0.0;0.0;16980;2021-01-16 16:15:40:079
0.151;-9.781;-0.151;0.0;0.0;0.0;16988;2021-01-16 16:15:40:087
0.151;-9.781;-0.151;0.0;0.0;0.0;16998;2021-01-16 16:15:40:097
0.139;-9.802;-0.132;0.0;0.0;0.0;17008;2021-01-16 16:15:40:107
0.139;-9.802;-0.132;0.0;0.0;0.0;17018;2021-01-16 16:15:40:117
0.139;-9.802;-0.132;0.0;0.0;0.0;17034;2021-01-16 16:15:40:133
0.139;-9.802;-0.132;0.0;0.0;0.0;17039;2021-01-16 16:15:40:138
0.139;-9.802;-0.132;0.0;0.0;0.0;17048;2021-01-16 16:15:40:147
0.139;-9.802;-0.132;0.0;0.0;0.0;17059;2021-01-16 16:15:40:158
0.139;-9.802;-0.132;0.0;0.0;0.0;17067;2021-01-16 16:15:40:166
0.12;-9.783;-0.134;0.0;0.0;0.0;17078;2021-01-16 16:15:40:177
0.12;-9.783;-0.134;0.0;0.0;0.0;17088;2021-01-16 16:15:40:187
0.12;-9.783;-0.134;0.0;0.0;0.0;17098;2021-01-16 16:15:40:197
0.12;-9.783;-0.134;0.0;0.0;0.0;17113;2021-01-16 16:15:40:212
0.12;-9.783;-0.134;0.0;0.0;0.0;17119;2021-01-16 16:15:40:218
0.139;-9.781;-0.12;0.0;0.0;0.0;17128;2021-01-16 16:15:40:227
0.139;-9.781;-0.12;0.0;0.0;0.0;17138;2021-01-16 16:15:40:237
0.139;-9.781;-0.12;0.0;0.0;0.0;17153;2021-01-16 16:15:40:252
0.139;-9.781;-0.12;0.0;0.0;0.0;17158;2021-01-16 16:15:40:257
0.139;-9.781;-0.12;0.0;0.0;0.0;17168;2021-01-16 16:15:40:267
0.139;-9.781;-0.12;0.0;0.0;0.0;17179;2021-01-16 16:15:40:278
0.132;-9.8;-0.134;0.0;0.0;0.0;17192;2021-01-16 16:15:40:291
0.132;-9.8;-0.134;0.0;0.0;0.0;17198;2021-01-16 16:15:40:297
0.132;-9.8;-0.134;0.0;0.0;0.0;17208;2021-01-16 16:15:40:307
0.132;-9.8;-0.134;0.0;0.0;0.0;17219;2021-01-16 16:15:40:318
0.132;-9.8;-0.134;0.0;0.0;0.0;17229;2021-01-16 16:15:40:328
0.132;-9.8;-0.134;0.0;0.0;0.0;17238;2021-01-16 16:15:40:337
0.139;-9.802;-0.136;0.0;0.0;0.0;17249;2021-01-16 16:15:40:348
0.139;-9.802;-0.136;0.0;0.0;0.0;17258;2021-01-16 16:15:40:357
0.139;-9.802;-0.136;0.0;0.0;0.0;17271;2021-01-16 16:15:40:370
0.139;-9.802;-0.136;0.0;0.0;0.0;17278;2021-01-16 16:15:40:377
0.139;-9.802;-0.136;0.0;0.0;0.0;17288;2021-01-16 16:15:40:387
0.139;-9.802;-0.136;0.0;0.0;0.0;17299;2021-01-16 16:15:40:398
0.132;-9.8;-0.144;0.0;0.0;0.0;17308;2021-01-16 16:15:40:407
0.132;-9.8;-0.144;0.0;0.0;0.0;17319;2021-01-16 16:15:40:418
0.132;-9.8;-0.144;0.0;0.0;0.0;17328;2021-01-16 16:15:40:427
0.132;-9.8;-0.144;0.0;0.0;0.0;17342;2021-01-16 16:15:40:441
0.132;-9.8;-0.144;0.0;0.0;0.0;17351;2021-01-16 16:15:40:450
0.132;-9.8;-0.144;0.0;0.0;0.0;17358;2021-01-16 16:15:40:457
0.136;-9.785;-0.141;0.0;0.0;0.0;17368;2021-01-16 16:15:40:467
0.136;-9.785;-0.141;0.0;0.0;0.0;17379;2021-01-16 16:15:40:478
0.136;-9.785;-0.141;0.0;0.0;0.0;17388;2021-01-16 16:15:40:487
0.136;-9.785;-0.141;0.0;0.0;0.0;17398;2021-01-16 16:15:40:497
0.136;-9.785;-0.141;0.0;0.0;0.0;17408;2021-01-16 16:15:40:507
0.136;-9.785;-0.141;0.0;0.0;0.0;17419;2021-01-16 16:15:40:518
0.134;-9.766;-0.144;0.0;0.0;0.0;17428;2021-01-16 16:15:40:527
0.134;-9.766;-0.144;0.0;0.0;0.0;17438;2021-01-16 16:15:40:537
0.134;-9.766;-0.144;0.0;0.0;0.0;17448;2021-01-16 16:15:40:547
0.134;-9.766;-0.144;0.0;0.0;0.0;17458;2021-01-16 16:15:40:557
0.134;-9.766;-0.144;0.0;0.0;0.0;17468;2021-01-16 16:15:40:567
0.134;-9.766;-0.144;0.0;0.0;0.0;17478;2021-01-16 16:15:40:577
0.122;-9.797;-0.132;0.0;0.0;0.0;17489;2021-01-16 16:15:40:588
0.122;-9.797;-0.132;0.0;0.0;0.0;17498;2021-01-16 16:15:40:597
0.122;-9.797;-0.132;0.0;0.0;0.0;17508;2021-01-16 16:15:40:607
0.122;-9.797;-0.132;0.0;0.0;0.0;17518;2021-01-16 16:15:40:617
0.122;-9.797;-0.132;0.0;0.0;0.0;17528;2021-01-16 16:15:40:627
0.122;-9.797;-0.132;0.0;0.0;0.0;17538;2021-01-16 16:15:40:637
0.125;-9.793;-0.125;0.0;0.0;0.0;17548;2021-01-16 16:15:40:647
0.125;-9.793;-0.125;0.0;0.0;0.0;17558;2021-01-16 16:15:40:657
0.125;-9.793;-0.125;0.0;0.0;0.0;17568;2021-01-16 16:15:40:667
0.125;-9.793;-0.125;0.0;0.0;0.0;17578;2021-01-16 16:15:40:677
0.125;-9.793;-0.125;0.0;0.0;0.0;17589;2021-01-16 16:15:40:688
0.125;-9.793;-0.125;0.0;0.0;0.0;17599;2021-01-16 16:15:40:698
0.122;-9.793;-0.127;0.0;0.0;0.0;17609;2021-01-16 16:15:40:708
0.122;-9.793;-0.127;0.0;0.0;0.0;17618;2021-01-16 16:15:40:717
0.122;-9.793;-0.127;0.0;0.0;0.0;17628;2021-01-16 16:15:40:727
0.122;-9.793;-0.127;0.0;0.0;0.0;17638;2021-01-16 16:15:40:737
0.122;-9.793;-0.127;0.0;0.0;0.0;17648;2021-01-16 16:15:40:747
0.122;-9.793;-0.127;0.0;0.0;0.0;17658;2021-01-16 16:15:40:757
0.136;-9.805;-0.144;0.0;0.0;0.0;17668;2021-01-16 16:15:40:767
0.136;-9.805;-0.144;0.0;0.0;0.0;17678;2021-01-16 16:15:40:777
0.136;-9.805;-0.144;0.0;0.0;0.0;17689;2021-01-16 16:15:40:788
0.136;-9.805;-0.144;0.0;0.0;0.0;17698;2021-01-16 16:15:40:797
0.136;-9.805;-0.144;0.0;0.0;0.0;17709;2021-01-16 16:15:40:808
0.136;-9.805;-0.144;0.0;0.0;0.0;17718;2021-01-16 16:15:40:817
0.129;-9.802;-0.144;0.0;0.0;0.0;17728;2021-01-16 16:15:40:827
0.129;-9.802;-0.144;0.0;0.0;0.0;17738;2021-01-16 16:15:40:837
0.129;-9.802;-0.144;0.0;0.0;0.0;17748;2021-01-16 16:15:40:847
0.129;-9.802;-0.144;0.0;0.0;0.0;17759;2021-01-16 16:15:40:858
0.129;-9.802;-0.144;0.0;0.0;0.0;17768;2021-01-16 16:15:40:867
0.129;-9.802;-0.144;0.0;0.0;0.0;17778;2021-01-16 16:15:40:877
0.129;-9.802;-0.144;0.0;0.0;0.0;17788;2021-01-16 16:15:40:887
0.105;-9.795;-0.134;0.0;0.0;0.0;17799;2021-01-16 16:15:40:898
0.105;-9.795;-0.134;0.0;0.0;0.0;17808;2021-01-16 16:15:40:907
0.105;-9.795;-0.134;0.0;0.0;0.0;17818;2021-01-16 16:15:40:917
0.105;-9.795;-0.134;0.0;0.0;0.0;17828;2021-01-16 16:15:40:927
0.105;-9.795;-0.134;0.0;0.0;0.0;17839;2021-01-16 16:15:40:938
0.105;-9.795;-0.134;0.0;0.0;0.0;17848;2021-01-16 16:15:40:947
0.117;-9.79;-0.144;0.0;0.0;0.0;17859;2021-01-16 16:15:40:958
0.117;-9.79;-0.144;0.0;0.0;0.0;17868;2021-01-16 16:15:40:967
0.117;-9.79;-0.144;0.0;0.0;0.0;17881;2021-01-16 16:15:40:980
0.117;-9.79;-0.144;0.0;0.0;0.0;17889;2021-01-16 16:15:40:988
0.117;-9.79;-0.144;0.0;0.0;0.0;17898;2021-01-16 16:15:40:997
0.117;-9.79;-0.144;0.0;0.0;0.0;17909;2021-01-16 16:15:41:008
0.117;-9.79;-0.144;0.0;0.0;0.0;17918;2021-01-16 16:15:41:017
0.117;-9.79;-0.144;0.0;0.0;0.0;17928;2021-01-16 16:15:41:027
0.117;-9.79;-0.144;0.0;0.0;0.0;17943;2021-01-16 16:15:41:042
0.117;-9.79;-0.144;0.0;0.0;0.0;17948;2021-01-16 16:15:41:047
0.117;-9.79;-0.144;0.0;0.0;0.0;17958;2021-01-16 16:15:41:057
0.136;-9.781;-0.153;0.0;0.0;0.0;17969;2021-01-16 16:15:41:068
0.136;-9.781;-0.153;0.0;0.0;0.0;17978;2021-01-16 16:15:41:077
0.136;-9.781;-0.153;0.0;0.0;0.0;17988;2021-01-16 16:15:41:087
0.136;-9.781;-0.153;0.0;0.0;0.0;17999;2021-01-16 16:15:41:098
0.136;-9.781;-0.153;0.0;0.0;0.0;18010;2021-01-16 16:15:41:109
0.136;-9.781;-0.153;0.0;0.0;0.0;18018;2021-01-16 16:15:41:117
0.136;-9.785;-0.141;0.0;0.0;0.0;18028;2021-01-16 16:15:41:127
0.136;-9.785;-0.141;0.0;0.0;0.0;18039;2021-01-16 16:15:41:138
0.136;-9.785;-0.141;0.0;0.0;0.0;18048;2021-01-16 16:15:41:147
0.136;-9.785;-0.141;0.0;0.0;0.0;18059;2021-01-16 16:15:41:158
0.136;-9.785;-0.141;0.0;0.0;0.0;18069;2021-01-16 16:15:41:168
0.136;-9.785;-0.141;0.0;0.0;0.0;18078;2021-01-16 16:15:41:177
0.136;-9.795;-0.132;0.0;0.0;0.0;18088;2021-01-16 16:15:41:187
0.136;-9.795;-0.132;0.0;0.0;0.0;18098;2021-01-16 16:15:41:197
0.136;-9.795;-0.132;0.0;0.0;0.0;18109;2021-01-16 16:15:41:208
0.136;-9.795;-0.132;0.0;0.0;0.0;18118;2021-01-16 16:15:41:217
0.136;-9.795;-0.132;0.0;0.0;0.0;18128;2021-01-16 16:15:41:227
0.136;-9.795;-0.132;0.0;0.0;0.0;18138;2021-01-16 16:15:41:237
0.125;-9.773;-0.144;0.0;-0.001;0.0;18148;2021-01-16 16:15:41:247
0.125;-9.773;-0.144;0.0;-0.001;0.0;18158;2021-01-16 16:15:41:257
0.125;-9.773;-0.144;0.0;-0.001;0.0;18169;2021-01-16 16:15:41:268
0.125;-9.773;-0.144;0.0;-0.001;0.0;18181;2021-01-16 16:15:41:280
0.125;-9.773;-0.144;0.0;-0.001;0.0;18188;2021-01-16 16:15:41:287
0.125;-9.773;-0.144;0.0;-0.001;0.0;18199;2021-01-16 16:15:41:298
0.144;-9.802;-0.141;0.0;-0.001;0.0;18208;2021-01-16 16:15:41:307
0.144;-9.802;-0.141;0.0;-0.001;0.0;18218;2021-01-16 16:15:41:317
0.144;-9.802;-0.141;0.0;-0.001;0.0;18228;2021-01-16 16:15:41:327
0.144;-9.802;-0.141;0.0;-0.001;0.0;18241;2021-01-16 16:15:41:340
0.144;-9.802;-0.141;0.0;-0.001;0.0;18248;2021-01-16 16:15:41:347
0.144;-9.802;-0.141;0.0;-0.001;0.0;18258;2021-01-16 16:15:41:357
0.122;-9.788;-0.132;0.001;0.0;0.0;18268;2021-01-16 16:15:41:367
0.122;-9.788;-0.132;0.001;0.0;0.0;18278;2021-01-16 16:15:41:377
0.122;-9.788;-0.132;0.001;0.0;0.0;18288;2021-01-16 16:15:41:387
0.122;-9.788;-0.132;0.001;0.0;0.0;18303;2021-01-16 16:15:41:402
0.122;-9.788;-0.132;0.001;0.0;0.0;18310;2021-01-16 16:15:41:409
0.122;-9.788;-0.132;0.001;0.0;0.0;18318;2021-01-16 16:15:41:417
0.127;-9.785;-0.139;0.001;0.0;0.0;18328;2021-01-16 16:15:41:427
0.127;-9.785;-0.139;0.001;0.0;0.0;18338;2021-01-16 16:15:41:437
0.127;-9.785;-0.139;0.001;0.0;0.0;18348;2021-01-16 16:15:41:447
0.127;-9.785;-0.139;0.001;0.0;0.0;18359;2021-01-16 16:15:41:458
0.127;-9.785;-0.139;0.001;0.0;0.0;18368;2021-01-16 16:15:41:467
0.127;-9.785;-0.139;0.001;0.0;0.0;18378;2021-01-16 16:15:41:477
0.129;-9.79;-0.129;0.0;-0.001;0.0;18388;2021-01-16 16:15:41:487
0.129;-9.79;-0.129;0.0;-0.001;0.0;18398;2021-01-16 16:15:41:497
0.129;-9.79;-0.129;0.0;-0.001;0.0;18408;2021-01-16 16:15:41:507
0.129;-9.79;-0.129;0.0;-0.001;0.0;18418;2021-01-16 16:15:41:517
0.129;-9.79;-0.129;0.0;-0.001;0.0;18428;2021-01-16 16:15:41:527
0.129;-9.79;-0.129;0.0;-0.001;0.0;18438;2021-01-16 16:15:41:537
0.129;-9.795;-0.146;0.0;-0.001;0.0;18448;2021-01-16 16:15:41:547
0.129;-9.795;-0.146;0.0;-0.001;0.0;18458;2021-01-16 16:15:41:557
0.129;-9.795;-0.146;0.0;-0.001;0.0;18469;2021-01-16 16:15:41:568
0.129;-9.795;-0.146;0.0;-0.001;0.0;18479;2021-01-16 16:15:41:578
0.129;-9.795;-0.146;0.0;-0.001;0.0;18488;2021-01-16 16:15:41:587
0.122;-9.797;-0.136;0.0;0.0;0.0;18508;2021-01-16 16:15:41:607
0.122;-9.797;-0.136;0.0;0.0;0.0;18509;2021-01-16 16:15:41:608
0.122;-9.797;-0.136;0.0;0.0;0.0;18519;2021-01-16 16:15:41:618
0.122;-9.797;-0.136;0.0;0.0;0.0;18528;2021-01-16 16:15:41:627
0.122;-9.797;-0.136;0.0;0.0;0.0;18539;2021-01-16 16:15:41:638
0.122;-9.797;-0.136;0.0;0.0;0.0;18550;2021-01-16 16:15:41:649
0.122;-9.797;-0.136;0.0;0.0;0.0;18558;2021-01-16 16:15:41:657
0.148;-9.778;-0.146;0.0;0.0;0.0;18571;2021-01-16 16:15:41:670
0.148;-9.778;-0.146;0.0;0.0;0.0;18578;2021-01-16 16:15:41:677
0.148;-9.778;-0.146;0.0;0.0;0.0;18588;2021-01-16 16:15:41:687
0.148;-9.778;-0.146;0.0;0.0;0.0;18598;2021-01-16 16:15:41:697
0.148;-9.778;-0.146;0.0;0.0;0.0;18608;2021-01-16 16:15:41:707
0.148;-9.778;-0.146;0.0;0.0;0.0;18620;2021-01-16 16:15:41:719
0.129;-9.793;-0.141;0.0;-0.001;0.0;18628;2021-01-16 16:15:41:727
0.129;-9.793;-0.141;0.0;-0.001;0.0;18640;2021-01-16 16:15:41:739
0.129;-9.793;-0.141;0.0;-0.001;0.0;18648;2021-01-16 16:15:41:747
0.129;-9.793;-0.141;0.0;-0.001;0.0;18659;2021-01-16 16:15:41:758
0.129;-9.793;-0.141;0.0;-0.001;0.0;18670;2021-01-16 16:15:41:769
0.129;-9.793;-0.141;0.0;-0.001;0.0;18678;2021-01-16 16:15:41:777
0.139;-9.771;-0.132;0.0;-0.001;0.0;18688;2021-01-16 16:15:41:787
0.139;-9.771;-0.132;0.0;-0.001;0.0;18698;2021-01-16 16:15:41:797
0.139;-9.771;-0.132;0.0;-0.001;0.0;18708;2021-01-16 16:15:41:807
0.139;-9.771;-0.132;0.0;-0.001;0.0;18721;2021-01-16 16:15:41:820
0.139;-9.771;-0.132;0.0;-0.001;0.0;18728;2021-01-16 16:15:41:827
0.139;-9.771;-0.132;0.0;-0.001;0.0;18738;2021-01-16 16:15:41:837
0.122;-9.802;-0.148;0.0;0.0;0.0;18748;2021-01-16 16:15:41:847
0.122;-9.802;-0.148;0.0;0.0;0.0;18763;2021-01-16 16:15:41:862
0.122;-9.802;-0.148;0.0;0.0;0.0;18768;2021-01-16 16:15:41:867
0.122;-9.802;-0.148;0.0;0.0;0.0;18778;2021-01-16 16:15:41:877
0.122;-9.802;-0.148;0.0;0.0;0.0;18788;2021-01-16 16:15:41:887
0.122;-9.802;-0.148;0.0;0.0;0.0;18798;2021-01-16 16:15:41:897
0.136;-9.795;-0.134;0.0;0.0;0.0;18808;2021-01-16 16:15:41:907
0.136;-9.795;-0.134;0.0;0.0;0.0;18818;2021-01-16 16:15:41:917
0.136;-9.795;-0.134;0.0;0.0;0.0;18828;2021-01-16 16:15:41:927
0.136;-9.795;-0.134;0.0;0.0;0.0;18838;2021-01-16 16:15:41:937
0.136;-9.795;-0.134;0.0;0.0;0.0;18848;2021-01-16 16:15:41:947
0.136;-9.795;-0.134;0.0;0.0;0.0;18858;2021-01-16 16:15:41:957
0.117;-9.807;-0.139;0.0;-0.001;0.0;18869;2021-01-16 16:15:41:968
0.117;-9.807;-0.139;0.0;-0.001;0.0;18878;2021-01-16 16:15:41:977
0.117;-9.807;-0.139;0.0;-0.001;0.0;18888;2021-01-16 16:15:41:987
0.117;-9.807;-0.139;0.0;-0.001;0.0;18899;2021-01-16 16:15:41:998
0.117;-9.807;-0.139;0.0;-0.001;0.0;18908;2021-01-16 16:15:42:007
0.117;-9.807;-0.139;0.0;-0.001;0.0;18918;2021-01-16 16:15:42:017
0.134;-9.778;-0.136;0.0;-0.001;0.0;18928;2021-01-16 16:15:42:027
0.134;-9.778;-0.136;0.0;-0.001;0.0;18941;2021-01-16 16:15:42:040
0.134;-9.778;-0.136;0.0;-0.001;0.0;18948;2021-01-16 16:15:42:047
0.134;-9.778;-0.136;0.0;-0.001;0.0;18959;2021-01-16 16:15:42:058
0.134;-9.778;-0.136;0.0;-0.001;0.0;18968;2021-01-16 16:15:42:067
0.134;-9.778;-0.136;0.0;-0.001;0.0;18978;2021-01-16 16:15:42:077
0.141;-9.8;-0.139;0.0;0.0;0.0;18988;2021-01-16 16:15:42:087
0.141;-9.8;-0.139;0.0;0.0;0.0;18999;2021-01-16 16:15:42:098
0.141;-9.8;-0.139;0.0;0.0;0.0;19010;2021-01-16 16:15:42:109
0.141;-9.8;-0.139;0.0;0.0;0.0;19028;2021-01-16 16:15:42:127
0.141;-9.8;-0.139;0.0;0.0;0.0;19031;2021-01-16 16:15:42:130
0.141;-9.8;-0.139;0.0;0.0;0.0;19038;2021-01-16 16:15:42:137
0.11;-9.785;-0.144;0.0;0.0;0.0;19048;2021-01-16 16:15:42:147
0.11;-9.785;-0.144;0.0;0.0;0.0;19059;2021-01-16 16:15:42:158
0.11;-9.785;-0.144;0.0;0.0;0.0;19068;2021-01-16 16:15:42:167
0.11;-9.785;-0.144;0.0;0.0;0.0;19079;2021-01-16 16:15:42:178
0.11;-9.785;-0.144;0.0;0.0;0.0;19088;2021-01-16 16:15:42:187
0.11;-9.785;-0.144;0.0;0.0;0.0;19098;2021-01-16 16:15:42:197
0.122;-9.785;-0.132;0.0;-0.001;0.0;19108;2021-01-16 16:15:42:207
0.122;-9.785;-0.132;0.0;-0.001;0.0;19118;2021-01-16 16:15:42:217
0.122;-9.785;-0.132;0.0;-0.001;0.0;19130;2021-01-16 16:15:42:229
0.122;-9.785;-0.132;0.0;-0.001;0.0;19139;2021-01-16 16:15:42:238
0.122;-9.785;-0.132;0.0;-0.001;0.0;19150;2021-01-16 16:15:42:249
0.122;-9.785;-0.132;0.0;-0.001;0.0;19159;2021-01-16 16:15:42:258
0.141;-9.793;-0.144;0.0;-0.001;0.0;19170;2021-01-16 16:15:42:269
0.141;-9.793;-0.144;0.0;-0.001;0.0;19178;2021-01-16 16:15:42:277
0.141;-9.793;-0.144;0.0;-0.001;0.0;19188;2021-01-16 16:15:42:287
0.141;-9.793;-0.144;0.0;-0.001;0.0;19200;2021-01-16 16:15:42:299
0.141;-9.793;-0.144;0.0;-0.001;0.0;19208;2021-01-16 16:15:42:307
0.141;-9.793;-0.144;0.0;-0.001;0.0;19219;2021-01-16 16:15:42:318
0.127;-9.769;-0.148;0.0;-0.001;0.0;19228;2021-01-16 16:15:42:327
0.127;-9.769;-0.148;0.0;-0.001;0.0;19238;2021-01-16 16:15:42:337
0.127;-9.769;-0.148;0.0;-0.001;0.0;19248;2021-01-16 16:15:42:347
0.127;-9.769;-0.148;0.0;-0.001;0.0;19258;2021-01-16 16:15:42:357
0.127;-9.769;-0.148;0.0;-0.001;0.0;19269;2021-01-16 16:15:42:368
0.127;-9.769;-0.148;0.0;-0.001;0.0;19278;2021-01-16 16:15:42:377
0.134;-9.79;-0.136;0.0;-0.001;0.0;19290;2021-01-16 16:15:42:389
0.134;-9.79;-0.136;0.0;-0.001;0.0;19299;2021-01-16 16:15:42:398
0.134;-9.79;-0.136;0.0;-0.001;0.0;19313;2021-01-16 16:15:42:412
0.134;-9.79;-0.136;0.0;-0.001;0.0;19318;2021-01-16 16:15:42:417
0.134;-9.79;-0.136;0.0;-0.001;0.0;19328;2021-01-16 16:15:42:427
0.134;-9.79;-0.136;0.0;-0.001;0.0;19339;2021-01-16 16:15:42:438
0.132;-9.797;-0.139;0.0;0.0;0.0;19349;2021-01-16 16:15:42:448
0.132;-9.797;-0.139;0.0;0.0;0.0;19358;2021-01-16 16:15:42:457
0.132;-9.797;-0.139;0.0;0.0;0.0;19368;2021-01-16 16:15:42:467
0.132;-9.797;-0.139;0.0;0.0;0.0;19378;2021-01-16 16:15:42:477
0.132;-9.797;-0.139;0.0;0.0;0.0;19389;2021-01-16 16:15:42:488
0.132;-9.797;-0.139;0.0;0.0;0.0;19398;2021-01-16 16:15:42:497
0.122;-9.797;-0.134;0.0;0.0;0.0;19408;2021-01-16 16:15:42:507
0.122;-9.797;-0.134;0.0;0.0;0.0;19418;2021-01-16 16:15:42:517
0.122;-9.797;-0.134;0.0;0.0;0.0;19431;2021-01-16 16:15:42:530
